ID,sender,sender_type,sender_id,ended_on,duration,time_run,time_render,time_show,time_end,time_commit,timestamp,time_switch,response,response_action,prime,target,condition,soa_condition,congruence,correct_response,correctResponse,correct
4549,Wecome0,canvas.Screen,0,timeout,493.5999999999999,1601.9000000003725,1596.916,1600.1,2077.6,2080.300000000745,2024-10-01T09:26:33.186Z,2093.7,,,,,,,,,,
4549,Wecome1,canvas.Screen,1,timeout,492.2000000000003,2080.9000000003725,2077.6,2093.7,2569.5,2570.9000000003725,2024-10-01T09:26:33.676Z,2585.9,,,,,,,,,,
4549,Wecome2,canvas.Screen,2,timeout,494.0,2571.199999999255,2569.5,2585.9,3063.0,3065.199999999255,2024-10-01T09:26:34.170Z,3079.9,,,,,,,,,,
4549,Wecome3,canvas.Screen,3,timeout,508.5999999999999,3065.5,3063.0,3079.9,3572.5,3573.5999999996275,2024-10-01T09:26:34.679Z,3588.5,,,,,,,,,,
4549,Instructions1,canvas.Screen,4,response,22964.5,3573.9000000003725,3572.5,3588.5,26553.0,26562.599999999627,2024-10-01T09:26:57.666Z,26580.4,,keypress,,,,,,,,
4549,Instructions 1a,canvas.Screen,5,response,11462.299999999253,26562.800000000745,26563.374,26580.4,38042.699999999255,38050.0,2024-10-01T09:27:09.153Z,38067.2,,keypress,,,,,,,,
4549,Instructions2,canvas.Screen,6,response,4469.200000000375,38050.300000000745,38046.8,38067.2,42536.40000000037,42544.59999999963,2024-10-01T09:27:13.648Z,42556.0,,keypress,,,,,,,,
4549,Instructions3,canvas.Screen,7,response,7697.300000000745,42544.90000000037,42534.9,42556.0,50253.300000000745,50261.800000000745,2024-10-01T09:27:21.364Z,50278.6,,keypress,,,,,,,,
4549,Instructions4,canvas.Screen,8,response,2639.800000000374,50262.0,50272.358,50278.6,52918.40000000037,52925.800000000745,2024-10-01T09:27:24.028Z,52939.8,,keypress,,,,,,,,
4549,Instructions5,canvas.Screen,9,response,6446.699999999997,52926.0,52912.9,52939.8,59386.5,59392.59999999963,2024-10-01T09:27:30.495Z,59411.7,,keypress(Space),,,,,,,,
4549,fixation,canvas.Screen,10_0_0,timeout,537.4000000000015,59393.0,59390.3,59411.7,59932.6,59934.5,2024-10-01T09:27:31.036Z,59949.1,,,snjghf,SHEEP,practice,practice,practice,n,,
4549,mask1,canvas.Screen,10_0_1,timeout,49.0,59934.90000000037,59932.6,59949.1,59982.6,59983.800000000745,2024-10-01T09:27:31.086Z,59998.1,,,snjghf,SHEEP,practice,practice,practice,n,,
4549,prime,canvas.Screen,10_0_2,timeout,43.400000000001455,59984.09999999963,59982.6,59998.1,60026.7,60029.199999999255,2024-10-01T09:27:31.131Z,60041.5,,,snjghf,SHEEP,practice,practice,practice,n,,
4549,mask2,canvas.Screen,10_0_3,timeout,44.0,60029.59999999963,60026.7,60041.5,60070.4,60075.90000000037,2024-10-01T09:27:31.178Z,60085.5,,,snjghf,SHEEP,practice,practice,practice,n,,
4549,target,canvas.Screen,10_0_4,response,840.0,60076.09999999963,60070.4,60085.5,60925.5,60946.199999999255,2024-10-01T09:27:32.048Z,60970.3,response_natural,keypress(n),snjghf,SHEEP,practice,practice,practice,n,n,False
4549,Practice Sequence,flow.Sequence,10_0,completion,1513.800000000003,59392.90000000037,59390.3,59411.7,60925.5,60946.59999999963,2024-10-01T09:27:32.048Z,60970.3,,,snjghf,SHEEP,practice,practice,practice,n,,
4549,fixation,canvas.Screen,10_1_0,timeout,541.0999999999985,60946.699999999255,60946.8,60970.3,61495.1,61497.90000000037,2024-10-01T09:27:32.600Z,61511.4,,,abjdhjs,HORSE,practice,practice,practice,n,,
4549,mask1,canvas.Screen,10_1_1,timeout,50.400000000001455,61498.199999999255,61495.1,61511.4,61544.9,61547.300000000745,2024-10-01T09:27:32.649Z,61561.8,,,abjdhjs,HORSE,practice,practice,practice,n,,
4549,prime,canvas.Screen,10_1_2,timeout,43.799999999995634,61547.59999999963,61544.9,61561.8,61589.2,61594.09999999963,2024-10-01T09:27:32.696Z,61605.6,,,abjdhjs,HORSE,practice,practice,practice,n,,
4549,mask2,canvas.Screen,10_1_3,timeout,45.30000000000291,61594.40000000037,61589.2,61605.6,61635.1,61640.800000000745,2024-10-01T09:27:32.743Z,61650.9,,,abjdhjs,HORSE,practice,practice,practice,n,,
4549,target,canvas.Screen,10_1_4,response,643.2999999992535,61641.0,61635.1,61650.9,62294.199999999255,62301.800000000745,2024-10-01T09:27:33.404Z,62319.9,response_natural,keypress(n),abjdhjs,HORSE,practice,practice,practice,n,n,False
4549,Practice Sequence,flow.Sequence,10_1,completion,1323.899999999252,60946.59999999963,60946.8,60970.3,62294.199999999255,62302.199999999255,2024-10-01T09:27:33.404Z,62319.9,,,abjdhjs,HORSE,practice,practice,practice,n,,
4549,fixation,canvas.Screen,10_2_0,timeout,543.1999999999971,62302.40000000037,62300.874,62319.9,62846.5,62849.0,2024-10-01T09:27:33.951Z,62863.1,,,nvoiuh,HOUSE,practice,practice,practice,m,,
4549,mask1,canvas.Screen,10_2_1,timeout,46.0,62849.40000000037,62846.5,62863.1,62896.0,62897.300000000745,2024-10-01T09:27:33.999Z,62909.1,,,nvoiuh,HOUSE,practice,practice,practice,m,,
4549,prime,canvas.Screen,10_2_2,timeout,46.599999999998545,62897.5,62896.0,62909.1,62940.1,62943.0,2024-10-01T09:27:34.045Z,62955.7,,,nvoiuh,HOUSE,practice,practice,practice,m,,
4549,mask2,canvas.Screen,10_2_3,timeout,44.700000000004366,62943.300000000745,62940.1,62955.7,62985.4,62990.800000000745,2024-10-01T09:27:34.093Z,63000.4,,,nvoiuh,HOUSE,practice,practice,practice,m,,
4549,target,canvas.Screen,10_2_4,response,782.699999999626,62991.0,62985.4,63000.4,63783.09999999963,63803.300000000745,2024-10-01T09:27:34.905Z,63818.1,response_manmade,keypress(m),nvoiuh,HOUSE,practice,practice,practice,m,m,False
4549,Practice Sequence,flow.Sequence,10_2,completion,1463.199999999626,62302.300000000745,62300.874,62319.9,63783.09999999963,63803.40000000037,2024-10-01T09:27:34.905Z,63818.1,,,nvoiuh,HOUSE,practice,practice,practice,m,,
4549,fixation,canvas.Screen,10_3_0,timeout,542.7000000000044,63803.59999999963,63800.368,63818.1,64344.5,64345.800000000745,2024-10-01T09:27:35.447Z,64360.8,,,iweonf,BOAT,practice,practice,practice,m,,
4549,mask1,canvas.Screen,10_3_1,timeout,54.599999999998545,64346.09999999963,64344.5,64360.8,64393.5,64394.699999999255,2024-10-01T09:27:35.496Z,64415.4,,,iweonf,BOAT,practice,practice,practice,m,,
4549,prime,canvas.Screen,10_3_2,timeout,55.099999999998545,64395.0,64393.5,64415.4,64452.7,64453.59999999963,2024-10-01T09:27:35.555Z,64470.5,,,iweonf,BOAT,practice,practice,practice,m,,
4549,mask2,canvas.Screen,10_3_3,timeout,43.30000000000291,64453.800000000745,64452.7,64470.5,64499.8,64501.300000000745,2024-10-01T09:27:35.603Z,64513.8,,,iweonf,BOAT,practice,practice,practice,m,,
4549,target,canvas.Screen,10_3_4,response,839.899999999252,64501.5,64499.8,64513.8,65353.699999999255,65359.90000000037,2024-10-01T09:27:36.462Z,65379.5,response_manmade,keypress(m),iweonf,BOAT,practice,practice,practice,m,m,False
4549,Practice Sequence,flow.Sequence,10_3,completion,1535.5999999992564,63803.59999999963,63800.368,63818.1,65353.699999999255,65360.199999999255,2024-10-01T09:27:36.462Z,65379.5,,,iweonf,BOAT,practice,practice,practice,m,,
4549,Practice Loop,flow.Loop,10,completion,5941.999999999258,59392.90000000037,59390.3,59411.7,65353.699999999255,65360.5,2024-10-01T09:27:36.462Z,65379.5,,,,,,,,,,
4549,Practice complete,canvas.Screen,11,response,1843.0,65360.5,65359.3,65379.5,67222.5,67231.09999999963,2024-10-01T09:27:38.333Z,67254.3,,keypress,,,,,,,,
4549,fixation,canvas.Screen,12_0_0_0_0,timeout,537.6999999999971,67231.40000000037,67229.426,67254.3,67775.0,67775.90000000037,2024-10-01T09:27:38.877Z,67792.0,,,desk,CANDY,Inc_Synth_Synth,long,incongruent,m,,
4549,mask1,canvas.Screen,12_0_0_0_1,timeout,46.0,67776.0,67775.0,67792.0,67826.1,67827.40000000037,2024-10-01T09:27:38.929Z,67838.0,,,desk,CANDY,Inc_Synth_Synth,long,incongruent,m,,
4549,prime,canvas.Screen,12_0_0_0_2,timeout,46.0,67827.59999999963,67826.1,67838.0,67869.4,67873.19999999925,2024-10-01T09:27:38.975Z,67884.0,,,desk,CANDY,Inc_Synth_Synth,long,incongruent,m,,
4549,mask2,canvas.Screen,12_0_0_0_3,timeout,44.19999999999709,67873.5,67869.4,67884.0,67914.2,67919.19999999925,2024-10-01T09:27:39.021Z,67928.2,,,desk,CANDY,Inc_Synth_Synth,long,incongruent,m,,
4549,DELAY,canvas.Screen,12_0_0_0_4,timeout,69.60000000000582,67919.5,67914.2,67928.2,67987.1,67989.5,2024-10-01T09:27:39.091Z,67997.8,,,desk,CANDY,Inc_Synth_Synth,long,incongruent,m,,
4549,target,canvas.Screen,12_0_0_0_5,response,742.399999999252,67989.80000000075,67987.1,67997.8,68740.19999999925,68748.19999999925,2024-10-01T09:27:39.850Z,68772.9,response_manmade,keypress(m),desk,CANDY,Inc_Synth_Synth,long,incongruent,m,m,False
4549,Trial Sequence,flow.Sequence,12_0_0_0,completion,1485.899999999252,67231.40000000037,67229.426,67254.3,68740.19999999925,68748.69999999925,2024-10-01T09:27:39.850Z,68772.9,,,desk,CANDY,Inc_Synth_Synth,long,incongruent,m,,
4549,fixation,canvas.Screen,12_0_0_1_0,timeout,541.4000000000087,68749.0,68747.77,68772.9,69298.9,69300.0,2024-10-01T09:27:40.401Z,69314.3,,,shark,HILL,Inc_Nat_Nat,long,incongruent,m,,
4549,mask1,canvas.Screen,12_0_0_1_1,timeout,50.19999999999709,69300.19999999925,69298.9,69314.3,69348.0,69349.19999999925,2024-10-01T09:27:40.451Z,69364.5,,,shark,HILL,Inc_Nat_Nat,long,incongruent,m,,
4549,prime,canvas.Screen,12_0_0_1_2,timeout,42.0,69349.59999999963,69348.0,69364.5,69391.7,69394.80000000075,2024-10-01T09:27:40.496Z,69406.5,,,shark,HILL,Inc_Nat_Nat,long,incongruent,m,,
4549,mask2,canvas.Screen,12_0_0_1_3,timeout,43.60000000000582,69395.09999999963,69391.7,69406.5,69435.0,69443.19999999925,2024-10-01T09:27:40.545Z,69450.1,,,shark,HILL,Inc_Nat_Nat,long,incongruent,m,,
4549,DELAY,canvas.Screen,12_0_0_1_4,timeout,69.79999999998836,69443.40000000037,69435.0,69450.1,69507.9,69510.5,2024-10-01T09:27:40.612Z,69519.9,,,shark,HILL,Inc_Nat_Nat,long,incongruent,m,,
4549,target,canvas.Screen,12_0_0_1_5,response,861.7999999992608,69510.80000000075,69507.9,69519.9,70381.69999999925,70386.59999999963,2024-10-01T09:27:41.488Z,70412.8,response_natural,keypress(n),shark,HILL,Inc_Nat_Nat,long,incongruent,m,m,False
4549,Trial Sequence,flow.Sequence,12_0_0_1,completion,1608.7999999992608,68748.90000000037,68747.77,68772.9,70381.69999999925,70387.0,2024-10-01T09:27:41.488Z,70412.8,,,shark,HILL,Inc_Nat_Nat,long,incongruent,m,,
4549,fixation,canvas.Screen,12_0_0_2_0,timeout,542.8999999999942,70387.0,70386.532,70412.8,70940.1,70941.19999999925,2024-10-01T09:27:42.043Z,70955.7,,,peas,PEAS,Con_Nat,long,congruent,n,,
4549,mask1,canvas.Screen,12_0_0_2_1,timeout,45.90000000000873,70941.5,70940.1,70955.7,70990.1,70991.30000000075,2024-10-01T09:27:42.093Z,71001.6,,,peas,PEAS,Con_Nat,long,congruent,n,,
4549,prime,canvas.Screen,12_0_0_2_2,timeout,47.19999999999709,70991.5,70990.1,71001.6,71033.0,71037.40000000037,2024-10-01T09:27:42.139Z,71048.8,,,peas,PEAS,Con_Nat,long,congruent,n,,
4549,mask2,canvas.Screen,12_0_0_2_3,timeout,39.5,71037.5,71033.0,71048.8,71078.0,71083.59999999963,2024-10-01T09:27:42.185Z,71088.3,,,peas,PEAS,Con_Nat,long,congruent,n,,
4549,DELAY,canvas.Screen,12_0_0_2_4,timeout,73.0,71083.69999999925,71078.0,71088.3,71148.9,71151.80000000075,2024-10-01T09:27:42.253Z,71161.3,,,peas,PEAS,Con_Nat,long,congruent,n,,
4549,target,canvas.Screen,12_0_0_2_5,response,725.899999999252,71152.0,71148.9,71161.3,71887.19999999925,71901.90000000037,2024-10-01T09:27:43.003Z,71918.4,response_natural,keypress(n),peas,PEAS,Con_Nat,long,congruent,n,n,False
4549,Trial Sequence,flow.Sequence,12_0_0_2,completion,1474.399999999252,70387.0,70386.532,70412.8,71887.19999999925,71902.0,2024-10-01T09:27:43.003Z,71918.4,,,peas,PEAS,Con_Nat,long,congruent,n,,
4549,fixation,canvas.Screen,12_0_0_3_0,timeout,544.0,71902.09999999963,71894.604,71918.4,72445.9,72447.0,2024-10-01T09:27:43.548Z,72462.4,,,plum,PLUM,Con_Nat,long,congruent,n,,
4549,mask1,canvas.Screen,12_0_0_3_1,timeout,44.70000000001164,72447.19999999925,72445.9,72462.4,72495.8,72496.90000000037,2024-10-01T09:27:43.598Z,72507.1,,,plum,PLUM,Con_Nat,long,congruent,n,,
4549,prime,canvas.Screen,12_0_0_3_2,timeout,46.69999999999709,72497.09999999963,72495.8,72507.1,72538.9,72542.5,2024-10-01T09:27:43.644Z,72553.8,,,plum,PLUM,Con_Nat,long,congruent,n,,
4549,mask2,canvas.Screen,12_0_0_3_3,timeout,43.30000000000291,72542.80000000075,72538.9,72553.8,72582.5,72589.30000000075,2024-10-01T09:27:43.691Z,72597.1,,,plum,PLUM,Con_Nat,long,congruent,n,,
4549,DELAY,canvas.Screen,12_0_0_3_4,timeout,83.59999999999127,72589.59999999963,72582.5,72597.1,72666.9,72671.40000000037,2024-10-01T09:27:43.773Z,72680.7,,,plum,PLUM,Con_Nat,long,congruent,n,,
4549,target,canvas.Screen,12_0_0_3_5,response,796.7000000003754,72671.59999999963,72666.9,72680.7,73477.40000000037,73484.69999999925,2024-10-01T09:27:44.586Z,73510.0,response_natural,keypress(n),plum,PLUM,Con_Nat,long,congruent,n,n,False
4549,Trial Sequence,flow.Sequence,12_0_0_3,completion,1559.0000000003783,71902.09999999963,71894.604,71918.4,73477.40000000037,73485.09999999963,2024-10-01T09:27:44.586Z,73510.0,,,plum,PLUM,Con_Nat,long,congruent,n,,
4549,fixation,canvas.Screen,12_0_0_4_0,timeout,543.6000000000058,73485.19999999925,73480.668,73510.0,74036.5,74037.5,2024-10-01T09:27:45.139Z,74053.6,,,deck,PLATE,Inc_Synth_Synth,long,incongruent,m,,
4549,mask1,canvas.Screen,12_0_0_4_1,timeout,45.89999999999418,74037.80000000075,74036.5,74053.6,74083.2,74089.0,2024-10-01T09:27:45.190Z,74099.5,,,deck,PLATE,Inc_Synth_Synth,long,incongruent,m,,
4549,prime,canvas.Screen,12_0_0_4_2,timeout,45.89999999999418,74089.30000000075,74083.2,74099.5,74129.4,74131.5,2024-10-01T09:27:45.233Z,74145.4,,,deck,PLATE,Inc_Synth_Synth,long,incongruent,m,,
4549,mask2,canvas.Screen,12_0_0_4_3,timeout,43.20000000001164,74131.80000000075,74129.4,74145.4,74173.6,74180.59999999963,2024-10-01T09:27:45.282Z,74188.6,,,deck,PLATE,Inc_Synth_Synth,long,incongruent,m,,
4549,DELAY,canvas.Screen,12_0_0_4_4,timeout,82.79999999998836,74180.90000000037,74173.6,74188.6,74258.2,74260.80000000075,2024-10-01T09:27:45.362Z,74271.4,,,deck,PLATE,Inc_Synth_Synth,long,incongruent,m,,
4549,target,canvas.Screen,12_0_0_4_5,response,815.1000000000058,74261.19999999925,74258.2,74271.4,75086.5,75107.19999999925,2024-10-01T09:27:46.208Z,75133.0,response_manmade,keypress(m),deck,PLATE,Inc_Synth_Synth,long,incongruent,m,m,False
4549,Trial Sequence,flow.Sequence,12_0_0_4,completion,1576.5,73485.09999999963,73480.668,73510.0,75086.5,75107.40000000037,2024-10-01T09:27:46.208Z,75133.0,,,deck,PLATE,Inc_Synth_Synth,long,incongruent,m,,
4549,fixation,canvas.Screen,12_0_0_5_0,timeout,541.8999999999942,75107.5,75104.7,75133.0,75658.5,75659.30000000075,2024-10-01T09:27:46.760Z,75674.9,,,bell,WHEEL,Inc_Synth_Synth,long,incongruent,m,,
4549,mask1,canvas.Screen,12_0_0_5_1,timeout,45.70000000001164,75659.59999999963,75658.5,75674.9,75708.9,75709.80000000075,2024-10-01T09:27:46.811Z,75720.6,,,bell,WHEEL,Inc_Synth_Synth,long,incongruent,m,,
4549,prime,canvas.Screen,12_0_0_5_2,timeout,46.0,75710.09999999963,75708.9,75720.6,75751.2,75755.30000000075,2024-10-01T09:27:46.856Z,75766.6,,,bell,WHEEL,Inc_Synth_Synth,long,incongruent,m,,
4549,mask2,canvas.Screen,12_0_0_5_3,timeout,39.0,75755.40000000037,75751.2,75766.6,75795.8,75801.59999999963,2024-10-01T09:27:46.903Z,75805.6,,,bell,WHEEL,Inc_Synth_Synth,long,incongruent,m,,
4549,DELAY,canvas.Screen,12_0_0_5_4,timeout,73.0,75801.80000000075,75795.8,75805.6,75866.7,75868.69999999925,2024-10-01T09:27:46.970Z,75878.6,,,bell,WHEEL,Inc_Synth_Synth,long,incongruent,m,,
4549,target,canvas.Screen,12_0_0_5_5,response,673.4999999996217,75869.0,75866.7,75878.6,76552.09999999963,76558.69999999925,2024-10-01T09:27:47.660Z,76568.9,response_manmade,keypress(m),bell,WHEEL,Inc_Synth_Synth,long,incongruent,m,m,False
4549,Trial Sequence,flow.Sequence,12_0_0_5,completion,1419.0999999996275,75107.5,75104.7,75133.0,76552.09999999963,76559.0,2024-10-01T09:27:47.660Z,76568.9,,,bell,WHEEL,Inc_Synth_Synth,long,incongruent,m,,
4549,fixation,canvas.Screen,12_0_0_6_0,timeout,541.6000000000058,76559.09999999963,76561.906,76568.9,77094.7,77095.90000000037,2024-10-01T09:27:48.197Z,77110.5,,,stick,STICK,Con_Nat,long,congruent,n,,
4549,mask1,canvas.Screen,12_0_0_6_1,timeout,45.80000000000291,77096.30000000075,77094.7,77110.5,77144.3,77145.80000000075,2024-10-01T09:27:48.247Z,77156.3,,,stick,STICK,Con_Nat,long,congruent,n,,
4549,prime,canvas.Screen,12_0_0_6_2,timeout,47.30000000000291,77146.0,77144.3,77156.3,77187.4,77192.40000000037,2024-10-01T09:27:48.293Z,77203.6,,,stick,STICK,Con_Nat,long,congruent,n,,
4549,mask2,canvas.Screen,12_0_0_6_3,timeout,42.79999999998836,77192.80000000075,77187.4,77203.6,77232.5,77238.69999999925,2024-10-01T09:27:48.340Z,77246.4,,,stick,STICK,Con_Nat,long,congruent,n,,
4549,DELAY,canvas.Screen,12_0_0_6_4,timeout,68.90000000000873,77239.0,77232.5,77246.4,77304.6,77305.5,2024-10-01T09:27:48.406Z,77315.3,,,stick,STICK,Con_Nat,long,congruent,n,,
4549,target,canvas.Screen,12_0_0_6_5,response,1158.1000000003696,77305.69999999925,77304.6,77315.3,78473.40000000037,78476.90000000037,2024-10-01T09:27:49.578Z,78494.7,response_natural,keypress(n),stick,STICK,Con_Nat,long,congruent,n,n,False
4549,Trial Sequence,flow.Sequence,12_0_0_6,completion,1904.5000000003783,76559.09999999963,76561.906,76568.9,78473.40000000037,78477.19999999925,2024-10-01T09:27:49.578Z,78494.7,,,stick,STICK,Con_Nat,long,congruent,n,,
4549,fixation,canvas.Screen,12_0_0_7_0,timeout,541.3000000000029,78477.30000000075,78465.254,78494.7,79019.5,79022.59999999963,2024-10-01T09:27:50.123Z,79036.0,,,eagle,WAGON,Inc_Nat_Synth,long,incongruent,m,,
4549,mask1,canvas.Screen,12_0_0_7_1,timeout,49.80000000000291,79022.80000000075,79019.5,79036.0,79070.1,79071.0,2024-10-01T09:27:50.172Z,79085.8,,,eagle,WAGON,Inc_Nat_Synth,long,incongruent,m,,
4549,prime,canvas.Screen,12_0_0_7_2,timeout,44.09999999999127,79071.30000000075,79070.1,79085.8,79116.0,79120.59999999963,2024-10-01T09:27:50.221Z,79129.9,,,eagle,WAGON,Inc_Nat_Synth,long,incongruent,m,,
4549,mask2,canvas.Screen,12_0_0_7_3,timeout,37.10000000000582,79120.80000000075,79116.0,79129.9,79156.3,79160.19999999925,2024-10-01T09:27:50.261Z,79167.0,,,eagle,WAGON,Inc_Nat_Synth,long,incongruent,m,,
4549,DELAY,canvas.Screen,12_0_0_7_4,timeout,74.30000000000291,79160.30000000075,79156.3,79167.0,79228.3,79229.59999999963,2024-10-01T09:27:50.330Z,79241.3,,,eagle,WAGON,Inc_Nat_Synth,long,incongruent,m,,
4549,target,canvas.Screen,12_0_0_7_5,response,1092.199999999997,79229.80000000075,79228.3,79241.3,80333.5,80341.0,2024-10-01T09:27:51.442Z,80366.2,response_manmade,keypress(m),eagle,WAGON,Inc_Nat_Synth,long,incongruent,m,m,False
4549,Trial Sequence,flow.Sequence,12_0_0_7,completion,1838.800000000003,78477.30000000075,78465.254,78494.7,80333.5,80341.30000000075,2024-10-01T09:27:51.442Z,80366.2,,,eagle,WAGON,Inc_Nat_Synth,long,incongruent,m,,
4549,fixation,canvas.Screen,12_0_0_8_0,timeout,544.5,80341.5,80341.256,80366.2,80894.0,80895.09999999963,2024-10-01T09:27:51.996Z,80910.7,,,mall,BUSH,Inc_Synth_Nat,long,incongruent,n,,
4549,mask1,canvas.Screen,12_0_0_8_1,timeout,49.10000000000582,80895.40000000037,80894.0,80910.7,80943.2,80944.09999999963,2024-10-01T09:27:52.045Z,80959.8,,,mall,BUSH,Inc_Synth_Nat,long,incongruent,n,,
4549,prime,canvas.Screen,12_0_0_8_2,timeout,43.59999999999127,80944.30000000075,80943.2,80959.8,80987.6,80991.19999999925,2024-10-01T09:27:52.092Z,81003.4,,,mall,BUSH,Inc_Synth_Nat,long,incongruent,n,,
4549,mask2,canvas.Screen,12_0_0_8_3,timeout,42.0,80991.40000000037,80987.6,81003.4,81031.8,81037.90000000037,2024-10-01T09:27:52.139Z,81045.4,,,mall,BUSH,Inc_Synth_Nat,long,incongruent,n,,
4549,DELAY,canvas.Screen,12_0_0_8_4,timeout,69.70000000001164,81038.19999999925,81031.8,81045.4,81103.4,81104.5,2024-10-01T09:27:52.205Z,81115.1,,,mall,BUSH,Inc_Synth_Nat,long,incongruent,n,,
4549,target,canvas.Screen,12_0_0_8_5,response,853.3999999999942,81104.90000000037,81103.4,81115.1,81968.5,81976.69999999925,2024-10-01T09:27:53.077Z,81989.1,response_natural,keypress(n),mall,BUSH,Inc_Synth_Nat,long,incongruent,n,n,False
4549,Trial Sequence,flow.Sequence,12_0_0_8,completion,1602.300000000003,80341.40000000037,80341.256,80366.2,81968.5,81977.0,2024-10-01T09:27:53.078Z,81989.1,,,mall,BUSH,Inc_Synth_Nat,long,incongruent,n,,
4549,fixation,canvas.Screen,12_0_0_9_0,timeout,541.7999999999884,81977.19999999925,81981.732,81989.1,82515.2,82516.40000000037,2024-10-01T09:27:53.617Z,82530.9,,,jeans,JEANS,Con_Synth,long,congruent,m,,
4549,mask1,canvas.Screen,12_0_0_9_1,timeout,45.80000000000291,82516.59999999963,82515.2,82530.9,82564.3,82565.40000000037,2024-10-01T09:27:53.666Z,82576.7,,,jeans,JEANS,Con_Synth,long,congruent,m,,
4549,prime,canvas.Screen,12_0_0_9_2,timeout,45.90000000000873,82565.59999999963,82564.3,82576.7,82607.0,82612.09999999963,2024-10-01T09:27:53.713Z,82622.6,,,jeans,JEANS,Con_Synth,long,congruent,m,,
4549,mask2,canvas.Screen,12_0_0_9_3,timeout,43.0,82612.30000000075,82607.0,82622.6,82651.1,82657.80000000075,2024-10-01T09:27:53.758Z,82665.6,,,jeans,JEANS,Con_Synth,long,congruent,m,,
4549,DELAY,canvas.Screen,12_0_0_9_4,timeout,69.39999999999418,82657.90000000037,82651.1,82665.6,82724.0,82726.40000000037,2024-10-01T09:27:53.827Z,82735.0,,,jeans,JEANS,Con_Synth,long,congruent,m,,
4549,target,canvas.Screen,12_0_0_9_5,response,910.4000000003725,82726.59999999963,82724.0,82735.0,83645.40000000037,83650.5,2024-10-01T09:27:54.751Z,83665.7,response_manmade,keypress(m),jeans,JEANS,Con_Synth,long,congruent,m,m,False
4549,Trial Sequence,flow.Sequence,12_0_0_9,completion,1656.3000000003667,81977.09999999963,81981.732,81989.1,83645.40000000037,83650.80000000075,2024-10-01T09:27:54.751Z,83665.7,,,jeans,JEANS,Con_Synth,long,congruent,m,,
4549,fixation,canvas.Screen,12_0_0_10_0,timeout,543.1999999999971,83651.0,83651.63,83665.7,84192.4,84193.5,2024-10-01T09:27:55.294Z,84208.9,,,ferry,FERRY,Con_Synth,long,congruent,m,,
4549,mask1,canvas.Screen,12_0_0_10_1,timeout,49.0,84193.69999999925,84192.4,84208.9,84242.4,84243.69999999925,2024-10-01T09:27:55.344Z,84257.9,,,ferry,FERRY,Con_Synth,long,congruent,m,,
4549,prime,canvas.Screen,12_0_0_10_2,timeout,43.10000000000582,84244.0,84242.4,84257.9,84284.8,84289.69999999925,2024-10-01T09:27:55.390Z,84301.0,,,ferry,FERRY,Con_Synth,long,congruent,m,,
4549,mask2,canvas.Screen,12_0_0_10_3,timeout,42.80000000000291,84290.09999999963,84284.8,84301.0,84328.4,84335.09999999963,2024-10-01T09:27:55.436Z,84343.8,,,ferry,FERRY,Con_Synth,long,congruent,m,,
4549,DELAY,canvas.Screen,12_0_0_10_4,timeout,69.5,84335.30000000075,84328.4,84343.8,84401.6,84404.09999999963,2024-10-01T09:27:55.505Z,84413.3,,,ferry,FERRY,Con_Synth,long,congruent,m,,
4549,target,canvas.Screen,12_0_0_10_5,response,820.7999999996246,84404.5,84401.6,84413.3,85234.09999999963,85240.59999999963,2024-10-01T09:27:56.341Z,85256.9,response_manmade,keypress(m),ferry,FERRY,Con_Synth,long,congruent,m,m,False
4549,Trial Sequence,flow.Sequence,12_0_0_10,completion,1568.3999999996304,83650.90000000037,83651.63,83665.7,85234.09999999963,85240.90000000037,2024-10-01T09:27:56.341Z,85256.9,,,ferry,FERRY,Con_Synth,long,congruent,m,,
4549,fixation,canvas.Screen,12_0_0_11_0,timeout,541.5,85241.09999999963,85246.6,85256.9,85782.3,85783.59999999963,2024-10-01T09:27:56.884Z,85798.4,,,stone,STONE,Con_Nat,long,congruent,n,,
4549,mask1,canvas.Screen,12_0_0_11_1,timeout,50.20000000001164,85783.80000000075,85782.3,85798.4,85832.6,85833.80000000075,2024-10-01T09:27:56.934Z,85848.6,,,stone,STONE,Con_Nat,long,congruent,n,,
4549,prime,canvas.Screen,12_0_0_11_2,timeout,43.19999999999709,85834.19999999925,85832.6,85848.6,85875.6,85879.80000000075,2024-10-01T09:27:56.980Z,85891.8,,,stone,STONE,Con_Nat,long,congruent,n,,
4549,mask2,canvas.Screen,12_0_0_11_3,timeout,42.39999999999418,85880.0,85875.6,85891.8,85920.4,85926.40000000037,2024-10-01T09:27:57.027Z,85934.2,,,stone,STONE,Con_Nat,long,congruent,n,,
4549,DELAY,canvas.Screen,12_0_0_11_4,timeout,83.40000000000873,85926.69999999925,85920.4,85934.2,86004.2,86006.69999999925,2024-10-01T09:27:57.107Z,86017.6,,,stone,STONE,Con_Nat,long,congruent,n,,
4549,target,canvas.Screen,12_0_0_11_5,response,764.3000000003667,86007.09999999963,86004.2,86017.6,86781.90000000037,86790.19999999925,2024-10-01T09:27:57.891Z,86811.4,response_natural,keypress(n),stone,STONE,Con_Nat,long,congruent,n,n,False
4549,Trial Sequence,flow.Sequence,12_0_0_11,completion,1525.0000000003783,85241.0,85246.6,85256.9,86781.90000000037,86790.59999999963,2024-10-01T09:27:57.891Z,86811.4,,,stone,STONE,Con_Nat,long,congruent,n,,
4549,fixation,canvas.Screen,12_0_0_12_0,timeout,535.0,86790.69999999925,86800.902,86811.4,87331.5,87332.59999999963,2024-10-01T09:27:58.433Z,87346.4,,,bunny,ROSE,Inc_Nat_Nat,long,incongruent,m,,
4549,mask1,canvas.Screen,12_0_0_12_1,timeout,48.80000000000291,87332.90000000037,87331.5,87346.4,87378.4,87380.59999999963,2024-10-01T09:27:58.481Z,87395.2,,,bunny,ROSE,Inc_Nat_Nat,long,incongruent,m,,
4549,prime,canvas.Screen,12_0_0_12_2,timeout,42.69999999999709,87380.80000000075,87378.4,87395.2,87422.9,87427.40000000037,2024-10-01T09:27:58.528Z,87437.9,,,bunny,ROSE,Inc_Nat_Nat,long,incongruent,m,,
4549,mask2,canvas.Screen,12_0_0_12_3,timeout,43.60000000000582,87427.59999999963,87422.9,87437.9,87467.6,87472.59999999963,2024-10-01T09:27:58.573Z,87481.5,,,bunny,ROSE,Inc_Nat_Nat,long,incongruent,m,,
4549,DELAY,canvas.Screen,12_0_0_12_4,timeout,71.10000000000582,87472.90000000037,87467.6,87481.5,87539.4,87541.90000000037,2024-10-01T09:27:58.642Z,87552.6,,,bunny,ROSE,Inc_Nat_Nat,long,incongruent,m,,
4549,target,canvas.Screen,12_0_0_12_5,response,762.8000000003667,87542.19999999925,87539.4,87552.6,88315.40000000037,88322.90000000037,2024-10-01T09:27:59.423Z,88344.7,response_natural,keypress(n),bunny,ROSE,Inc_Nat_Nat,long,incongruent,m,m,False
4549,Trial Sequence,flow.Sequence,12_0_0_12,completion,1504.0000000003783,86790.59999999963,86800.902,86811.4,88315.40000000037,88323.5,2024-10-01T09:27:59.424Z,88344.7,,,bunny,ROSE,Inc_Nat_Nat,long,incongruent,m,,
4549,fixation,canvas.Screen,12_0_0_13_0,timeout,541.9000000000087,88323.59999999963,88335.902,88344.7,88870.8,88871.59999999963,2024-10-01T09:27:59.972Z,88886.6,,,apron,APRON,Con_Synth,long,congruent,m,,
4549,mask1,canvas.Screen,12_0_0_13_1,timeout,50.79999999998836,88871.80000000075,88870.8,88886.6,88919.9,88921.80000000075,2024-10-01T09:28:00.022Z,88937.4,,,apron,APRON,Con_Synth,long,congruent,m,,
4549,prime,canvas.Screen,12_0_0_13_2,timeout,42.60000000000582,88921.90000000037,88919.9,88937.4,88966.3,88967.09999999963,2024-10-01T09:28:00.067Z,88980.0,,,apron,APRON,Con_Synth,long,congruent,m,,
4549,mask2,canvas.Screen,12_0_0_13_3,timeout,47.89999999999418,88967.19999999925,88966.3,88980.0,89011.5,89013.40000000037,2024-10-01T09:28:00.114Z,89027.9,,,apron,APRON,Con_Synth,long,congruent,m,,
4549,DELAY,canvas.Screen,12_0_0_13_4,timeout,84.40000000000873,89013.5,89011.5,89027.9,89093.6,89094.80000000075,2024-10-01T09:28:00.195Z,89112.3,,,apron,APRON,Con_Synth,long,congruent,m,,
4549,target,canvas.Screen,12_0_0_13_5,response,1060.7999999996246,89095.09999999963,89093.6,89112.3,90173.09999999963,90193.59999999963,2024-10-01T09:28:01.294Z,90208.3,response_manmade,keypress(m),apron,APRON,Con_Synth,long,congruent,m,m,False
4549,Trial Sequence,flow.Sequence,12_0_0_13,completion,1828.3999999996304,88323.59999999963,88335.902,88344.7,90173.09999999963,90193.80000000075,2024-10-01T09:28:01.294Z,90208.3,,,apron,APRON,Con_Synth,long,congruent,m,,
4549,fixation,canvas.Screen,12_0_0_14_0,timeout,536.6999999999971,90193.90000000037,90195.59,90208.3,90727.8,90729.80000000075,2024-10-01T09:28:01.830Z,90745.0,,,canoe,CANOE,Con_Synth,long,congruent,m,,
4549,mask1,canvas.Screen,12_0_0_14_1,timeout,45.19999999999709,90730.0,90727.8,90745.0,90773.6,90779.69999999925,2024-10-01T09:28:01.880Z,90790.2,,,canoe,CANOE,Con_Synth,long,congruent,m,,
4549,prime,canvas.Screen,12_0_0_14_2,timeout,45.80000000000291,90779.80000000075,90773.6,90790.2,90820.6,90822.69999999925,2024-10-01T09:28:01.923Z,90836.0,,,canoe,CANOE,Con_Synth,long,congruent,m,,
4549,mask2,canvas.Screen,12_0_0_14_3,timeout,43.60000000000582,90822.80000000075,90820.6,90836.0,90865.7,90871.09999999963,2024-10-01T09:28:01.971Z,90879.6,,,canoe,CANOE,Con_Synth,long,congruent,m,,
4549,DELAY,canvas.Screen,12_0_0_14_4,timeout,68.69999999999709,90871.5,90865.7,90879.6,90936.9,90938.69999999925,2024-10-01T09:28:02.039Z,90948.3,,,canoe,CANOE,Con_Synth,long,congruent,m,,
4549,target,canvas.Screen,12_0_0_14_5,response,866.6999999999971,90938.80000000075,90936.9,90948.3,91815.0,91821.30000000075,2024-10-01T09:28:02.921Z,91838.2,response_manmade,keypress(m),canoe,CANOE,Con_Synth,long,congruent,m,m,False
4549,Trial Sequence,flow.Sequence,12_0_0_14,completion,1606.699999999997,90193.90000000037,90195.59,90208.3,91815.0,91821.69999999925,2024-10-01T09:28:02.922Z,91838.2,,,canoe,CANOE,Con_Synth,long,congruent,m,,
4549,fixation,canvas.Screen,12_0_0_15_0,timeout,542.0,91821.80000000075,91831.598,91838.2,92364.6,92365.69999999925,2024-10-01T09:28:03.466Z,92380.2,,,clam,CLAM,Con_Nat,long,congruent,n,,
4549,mask1,canvas.Screen,12_0_0_15_1,timeout,45.69999999999709,92366.0,92364.6,92380.2,92414.3,92415.40000000037,2024-10-01T09:28:03.515Z,92425.9,,,clam,CLAM,Con_Nat,long,congruent,n,,
4549,prime,canvas.Screen,12_0_0_15_2,timeout,46.30000000000291,92415.69999999925,92414.3,92425.9,92456.9,92461.69999999925,2024-10-01T09:28:03.562Z,92472.2,,,clam,CLAM,Con_Nat,long,congruent,n,,
4549,mask2,canvas.Screen,12_0_0_15_3,timeout,43.80000000000291,92462.0,92456.9,92472.2,92501.8,92508.09999999963,2024-10-01T09:28:03.608Z,92516.0,,,clam,CLAM,Con_Nat,long,congruent,n,,
4549,DELAY,canvas.Screen,12_0_0_15_4,timeout,83.19999999999709,92508.40000000037,92501.8,92516.0,92585.3,92587.69999999925,2024-10-01T09:28:03.688Z,92599.2,,,clam,CLAM,Con_Nat,long,congruent,n,,
4549,target,canvas.Screen,12_0_0_15_5,response,1085.800000000003,92588.0,92585.3,92599.2,93685.0,93692.90000000037,2024-10-01T09:28:04.793Z,93707.5,response_natural,keypress(n),clam,CLAM,Con_Nat,long,congruent,n,n,False
4549,Trial Sequence,flow.Sequence,12_0_0_15,completion,1846.800000000003,91821.80000000075,91831.598,91838.2,93685.0,93693.40000000037,2024-10-01T09:28:04.793Z,93707.5,,,clam,CLAM,Con_Nat,long,congruent,n,,
4549,fixation,canvas.Screen,12_0_0_16_0,timeout,543.3000000000029,93693.5,93699.156,93707.5,94234.9,94236.09999999963,2024-10-01T09:28:05.336Z,94250.8,,,fruit,BEAR,Inc_Nat_Nat,long,incongruent,m,,
4549,mask1,canvas.Screen,12_0_0_16_1,timeout,49.89999999999418,94236.30000000075,94234.9,94250.8,94284.9,94285.80000000075,2024-10-01T09:28:05.386Z,94300.7,,,fruit,BEAR,Inc_Nat_Nat,long,incongruent,m,,
4549,prime,canvas.Screen,12_0_0_16_2,timeout,43.80000000000291,94286.09999999963,94284.9,94300.7,94329.9,94337.0,2024-10-01T09:28:05.437Z,94344.5,,,fruit,BEAR,Inc_Nat_Nat,long,incongruent,m,,
4549,mask2,canvas.Screen,12_0_0_16_3,timeout,41.89999999999418,94337.19999999925,94329.9,94344.5,94372.1,94374.19999999925,2024-10-01T09:28:05.474Z,94386.4,,,fruit,BEAR,Inc_Nat_Nat,long,incongruent,m,,
4549,DELAY,canvas.Screen,12_0_0_16_4,timeout,82.5,94374.40000000037,94372.1,94386.4,94452.7,94458.09999999963,2024-10-01T09:28:05.558Z,94468.9,,,fruit,BEAR,Inc_Nat_Nat,long,incongruent,m,,
4549,target,canvas.Screen,12_0_0_16_5,response,817.4000000007509,94458.19999999925,94452.7,94468.9,95286.30000000075,95293.59999999963,2024-10-01T09:28:06.393Z,95314.5,response_natural,keypress(n),fruit,BEAR,Inc_Nat_Nat,long,incongruent,m,m,False
4549,Trial Sequence,flow.Sequence,12_0_0_16,completion,1578.800000000745,93693.5,93699.156,93707.5,95286.30000000075,95293.80000000075,2024-10-01T09:28:06.394Z,95314.5,,,fruit,BEAR,Inc_Nat_Nat,long,incongruent,m,,
4549,fixation,canvas.Screen,12_0_0_17_0,timeout,541.8000000000029,95294.0,95285.534,95314.5,95839.4,95840.09999999963,2024-10-01T09:28:06.940Z,95856.3,,,hare,HARE,Con_Nat,long,congruent,n,,
4549,mask1,canvas.Screen,12_0_0_17_1,timeout,45.89999999999418,95840.19999999925,95839.4,95856.3,95890.5,95891.69999999925,2024-10-01T09:28:06.992Z,95902.2,,,hare,HARE,Con_Nat,long,congruent,n,,
4549,prime,canvas.Screen,12_0_0_17_2,timeout,46.69999999999709,95892.09999999963,95890.5,95902.2,95933.1,95936.90000000037,2024-10-01T09:28:07.037Z,95948.9,,,hare,HARE,Con_Nat,long,congruent,n,,
4549,mask2,canvas.Screen,12_0_0_17_3,timeout,43.30000000000291,95937.09999999963,95933.1,95948.9,95977.4,95983.69999999925,2024-10-01T09:28:07.084Z,95992.2,,,hare,HARE,Con_Nat,long,congruent,n,,
4549,DELAY,canvas.Screen,12_0_0_17_4,timeout,82.69999999999709,95983.90000000037,95977.4,95992.2,96058.3,96060.30000000075,2024-10-01T09:28:07.160Z,96074.9,,,hare,HARE,Con_Nat,long,congruent,n,,
4549,target,canvas.Screen,12_0_0_17_5,response,843.0000000003783,96060.5,96058.3,96074.9,96917.90000000037,96924.69999999925,2024-10-01T09:28:08.024Z,96950.5,response_natural,keypress(n),hare,HARE,Con_Nat,long,congruent,n,n,False
4549,Trial Sequence,flow.Sequence,12_0_0_17,completion,1603.4000000003725,95293.90000000037,95285.534,95314.5,96917.90000000037,96924.90000000037,2024-10-01T09:28:08.025Z,96950.5,,,hare,HARE,Con_Nat,long,congruent,n,,
4549,fixation,canvas.Screen,12_0_0_18_0,timeout,542.8999999999942,96924.90000000037,96924.866,96950.5,97477.9,97479.5,2024-10-01T09:28:08.579Z,97493.4,,,pear,PEAR,Con_Nat,long,congruent,n,,
4549,mask1,canvas.Screen,12_0_0_18_1,timeout,51.0,97479.69999999925,97477.9,97493.4,97527.7,97528.90000000037,2024-10-01T09:28:08.629Z,97544.4,,,pear,PEAR,Con_Nat,long,congruent,n,,
4549,prime,canvas.Screen,12_0_0_18_2,timeout,42.10000000000582,97529.19999999925,97527.7,97544.4,97571.4,97574.80000000075,2024-10-01T09:28:08.675Z,97586.5,,,pear,PEAR,Con_Nat,long,congruent,n,,
4549,mask2,canvas.Screen,12_0_0_18_3,timeout,43.0,97575.0,97571.4,97586.5,97613.2,97616.80000000075,2024-10-01T09:28:08.717Z,97629.5,,,pear,PEAR,Con_Nat,long,congruent,n,,
4549,DELAY,canvas.Screen,12_0_0_18_4,timeout,81.89999999999418,97617.09999999963,97613.2,97629.5,97697.3,97700.80000000075,2024-10-01T09:28:08.800Z,97711.4,,,pear,PEAR,Con_Nat,long,congruent,n,,
4549,target,canvas.Screen,12_0_0_18_5,response,645.6000000000058,97700.90000000037,97697.3,97711.4,98357.0,98362.80000000075,2024-10-01T09:28:09.462Z,98374.3,response_natural,keypress(n),pear,PEAR,Con_Nat,long,congruent,n,n,False
4549,Trial Sequence,flow.Sequence,12_0_0_18,completion,1406.5,96924.90000000037,96924.866,96950.5,98357.0,98363.0,2024-10-01T09:28:09.463Z,98374.3,,,pear,PEAR,Con_Nat,long,congruent,n,,
4549,fixation,canvas.Screen,12_0_0_19_0,timeout,542.0999999999913,98363.19999999925,98361.6,98374.3,98898.9,98900.90000000037,2024-10-01T09:28:10.001Z,98916.4,,,flask,FLASK,Con_Synth,long,congruent,m,,
4549,mask1,canvas.Screen,12_0_0_19_1,timeout,45.20000000001164,98901.19999999925,98898.9,98916.4,98945.4,98951.40000000037,2024-10-01T09:28:10.051Z,98961.6,,,flask,FLASK,Con_Synth,long,congruent,m,,
4549,prime,canvas.Screen,12_0_0_19_2,timeout,51.69999999999709,98951.59999999963,98945.4,98961.6,98992.4,98995.19999999925,2024-10-01T09:28:10.095Z,99013.3,,,flask,FLASK,Con_Synth,long,congruent,m,,
4549,mask2,canvas.Screen,12_0_0_19_3,timeout,50.39999999999418,98995.40000000037,98992.4,99013.3,99049.9,99050.59999999963,2024-10-01T09:28:10.150Z,99063.7,,,flask,FLASK,Con_Synth,long,congruent,m,,
4549,DELAY,canvas.Screen,12_0_0_19_4,timeout,71.80000000000291,99050.80000000075,99049.9,99063.7,99122.7,99123.80000000075,2024-10-01T09:28:10.224Z,99135.5,,,flask,FLASK,Con_Synth,long,congruent,m,,
4549,target,canvas.Screen,12_0_0_19_5,response,874.0999999996275,99124.19999999925,99122.7,99135.5,100009.59999999963,100018.0,2024-10-01T09:28:11.118Z,100029.0,response_manmade,keypress(m),flask,FLASK,Con_Synth,long,congruent,m,m,False
4549,Trial Sequence,flow.Sequence,12_0_0_19,completion,1635.2999999996246,98363.09999999963,98361.6,98374.3,100009.59999999963,100018.30000000075,2024-10-01T09:28:11.118Z,100029.0,,,flask,FLASK,Con_Synth,long,congruent,m,,
4549,fixation,canvas.Screen,12_0_0_20_0,timeout,542.3000000000029,100018.5,100018.798,100029.0,100554.9,100556.09999999963,2024-10-01T09:28:11.656Z,100571.3,,,shoe,COUCH,Inc_Synth_Synth,long,incongruent,m,,
4549,mask1,canvas.Screen,12_0_0_20_1,timeout,45.69999999999709,100556.30000000075,100554.9,100571.3,100605.0,100606.30000000075,2024-10-01T09:28:11.706Z,100617.0,,,shoe,COUCH,Inc_Synth_Synth,long,incongruent,m,,
4549,prime,canvas.Screen,12_0_0_20_2,timeout,46.5,100606.59999999963,100605.0,100617.0,100648.7,100652.40000000037,2024-10-01T09:28:11.752Z,100663.5,,,shoe,COUCH,Inc_Synth_Synth,long,incongruent,m,,
4549,mask2,canvas.Screen,12_0_0_20_3,timeout,43.30000000000291,100652.59999999963,100648.7,100663.5,100692.2,100699.19999999925,2024-10-01T09:28:11.799Z,100706.8,,,shoe,COUCH,Inc_Synth_Synth,long,incongruent,m,,
4549,DELAY,canvas.Screen,12_0_0_20_4,timeout,68.89999999999418,100699.59999999963,100692.2,100706.8,100764.3,100767.09999999963,2024-10-01T09:28:11.867Z,100775.7,,,shoe,COUCH,Inc_Synth_Synth,long,incongruent,m,,
4549,target,canvas.Screen,12_0_0_20_5,response,955.600000000748,100767.40000000037,100764.3,100775.7,101731.30000000075,101739.80000000075,2024-10-01T09:28:12.839Z,101760.0,response_manmade,keypress(m),shoe,COUCH,Inc_Synth_Synth,long,incongruent,m,m,False
4549,Trial Sequence,flow.Sequence,12_0_0_20,completion,1702.300000000745,100018.30000000075,100018.798,100029.0,101731.30000000075,101740.30000000075,2024-10-01T09:28:12.840Z,101760.0,,,shoe,COUCH,Inc_Synth_Synth,long,incongruent,m,,
4549,fixation,canvas.Screen,12_0_0_21_0,timeout,542.3999999999942,101740.40000000037,101742.328,101760.0,102286.9,102288.0,2024-10-01T09:28:13.387Z,102302.4,,,roof,PIANO,Inc_Synth_Synth,long,incongruent,m,,
4549,mask1,canvas.Screen,12_0_0_21_1,timeout,46.5,102288.30000000075,102286.9,102302.4,102336.5,102337.40000000037,2024-10-01T09:28:13.437Z,102348.9,,,roof,PIANO,Inc_Synth_Synth,long,incongruent,m,,
4549,prime,canvas.Screen,12_0_0_21_2,timeout,46.90000000000873,102337.59999999963,102336.5,102348.9,102379.5,102383.80000000075,2024-10-01T09:28:13.483Z,102395.8,,,roof,PIANO,Inc_Synth_Synth,long,incongruent,m,,
4549,mask2,canvas.Screen,12_0_0_21_3,timeout,42.89999999999418,102384.09999999963,102379.5,102395.8,102424.0,102425.30000000075,2024-10-01T09:28:13.525Z,102438.7,,,roof,PIANO,Inc_Synth_Synth,long,incongruent,m,,
4549,DELAY,canvas.Screen,12_0_0_21_4,timeout,69.0,102425.59999999963,102424.0,102438.7,102496.6,102498.90000000037,2024-10-01T09:28:13.598Z,102507.7,,,roof,PIANO,Inc_Synth_Synth,long,incongruent,m,,
4549,target,canvas.Screen,12_0_0_21_5,response,918.8000000000029,102499.09999999963,102496.6,102507.7,103426.5,103434.40000000037,2024-10-01T09:28:14.534Z,103448.3,response_manmade,keypress(m),roof,PIANO,Inc_Synth_Synth,long,incongruent,m,m,False
4549,Trial Sequence,flow.Sequence,12_0_0_21,completion,1666.5,101740.40000000037,101742.328,101760.0,103426.5,103434.80000000075,2024-10-01T09:28:14.534Z,103448.3,,,roof,PIANO,Inc_Synth_Synth,long,incongruent,m,,
4549,fixation,canvas.Screen,12_0_0_22_0,timeout,542.6999999999971,103434.90000000037,103440.996,103448.3,103974.7,103977.30000000075,2024-10-01T09:28:15.077Z,103991.0,,,ocean,TREE,Inc_Nat_Nat,long,incongruent,m,,
4549,mask1,canvas.Screen,12_0_0_22_1,timeout,50.39999999999418,103977.69999999925,103974.7,103991.0,104024.5,104026.5,2024-10-01T09:28:15.126Z,104041.4,,,ocean,TREE,Inc_Nat_Nat,long,incongruent,m,,
4549,prime,canvas.Screen,12_0_0_22_2,timeout,43.60000000000582,104026.59999999963,104024.5,104041.4,104069.8,104072.09999999963,2024-10-01T09:28:15.171Z,104085.0,,,ocean,TREE,Inc_Nat_Nat,long,incongruent,m,,
4549,mask2,canvas.Screen,12_0_0_22_3,timeout,41.19999999999709,104072.19999999925,104069.8,104085.0,104113.3,104115.19999999925,2024-10-01T09:28:15.215Z,104126.2,,,ocean,TREE,Inc_Nat_Nat,long,incongruent,m,,
4549,DELAY,canvas.Screen,12_0_0_22_4,timeout,70.10000000000582,104115.40000000037,104113.3,104126.2,104184.3,104186.5,2024-10-01T09:28:15.286Z,104196.3,,,ocean,TREE,Inc_Nat_Nat,long,incongruent,m,,
4549,target,canvas.Screen,12_0_0_22_5,response,1007.7999999996246,104186.59999999963,104184.3,104196.3,105204.09999999963,105208.80000000075,2024-10-01T09:28:16.308Z,105220.6,response_natural,keypress(n),ocean,TREE,Inc_Nat_Nat,long,incongruent,m,m,False
4549,Trial Sequence,flow.Sequence,12_0_0_22,completion,1755.7999999996246,103434.90000000037,103440.996,103448.3,105204.09999999963,105209.09999999963,2024-10-01T09:28:16.308Z,105220.6,,,ocean,TREE,Inc_Nat_Nat,long,incongruent,m,,
4549,fixation,canvas.Screen,12_0_0_23_0,timeout,541.7999999999884,105209.19999999925,105212.926,105220.6,105745.8,105746.90000000037,2024-10-01T09:28:16.846Z,105762.4,,,pipe,LION,Inc_Synth_Nat,long,incongruent,n,,
4549,mask1,canvas.Screen,12_0_0_23_1,timeout,50.80000000000291,105747.19999999925,105745.8,105762.4,105796.0,105797.30000000075,2024-10-01T09:28:16.897Z,105813.2,,,pipe,LION,Inc_Synth_Nat,long,incongruent,n,,
4549,prime,canvas.Screen,12_0_0_23_2,timeout,42.19999999999709,105797.5,105796.0,105813.2,105841.0,105843.90000000037,2024-10-01T09:28:16.943Z,105855.4,,,pipe,LION,Inc_Synth_Nat,long,incongruent,n,,
4549,mask2,canvas.Screen,12_0_0_23_3,timeout,41.90000000000873,105844.09999999963,105841.0,105855.4,105884.4,105885.09999999963,2024-10-01T09:28:16.984Z,105897.3,,,pipe,LION,Inc_Synth_Nat,long,incongruent,n,,
4549,DELAY,canvas.Screen,12_0_0_23_4,timeout,69.09999999999127,105885.30000000075,105884.4,105897.3,105954.8,105956.59999999963,2024-10-01T09:28:17.056Z,105966.4,,,pipe,LION,Inc_Synth_Nat,long,incongruent,n,,
4549,target,canvas.Screen,12_0_0_23_5,response,1072.5000000003783,105956.69999999925,105954.8,105966.4,107038.90000000037,107046.0,2024-10-01T09:28:18.145Z,107057.5,response_manmade,keypress(m),pipe,LION,Inc_Synth_Nat,long,incongruent,n,n,False
4549,Trial Sequence,flow.Sequence,12_0_0_23,completion,1818.3000000003667,105209.19999999925,105212.926,105220.6,107038.90000000037,107046.40000000037,2024-10-01T09:28:18.146Z,107057.5,,,pipe,LION,Inc_Synth_Nat,long,incongruent,n,,
4549,fixation,canvas.Screen,12_0_0_24_0,timeout,537.3000000000029,107046.59999999963,107049.69,107057.5,107579.0,107580.19999999925,2024-10-01T09:28:18.679Z,107594.8,,,stair,STAIR,Con_Synth,long,congruent,m,,
4549,mask1,canvas.Screen,12_0_0_24_1,timeout,50.0,107580.5,107579.0,107594.8,107627.9,107629.30000000075,2024-10-01T09:28:18.728Z,107644.8,,,stair,STAIR,Con_Synth,long,congruent,m,,
4549,prime,canvas.Screen,12_0_0_24_2,timeout,41.30000000000291,107629.5,107627.9,107644.8,107670.7,107675.30000000075,2024-10-01T09:28:18.774Z,107686.1,,,stair,STAIR,Con_Synth,long,congruent,m,,
4549,mask2,canvas.Screen,12_0_0_24_3,timeout,43.19999999999709,107675.5,107670.7,107686.1,107714.5,107721.19999999925,2024-10-01T09:28:18.820Z,107729.3,,,stair,STAIR,Con_Synth,long,congruent,m,,
4549,DELAY,canvas.Screen,12_0_0_24_4,timeout,85.0,107721.40000000037,107714.5,107729.3,107799.9,107804.40000000037,2024-10-01T09:28:18.904Z,107814.3,,,stair,STAIR,Con_Synth,long,congruent,m,,
4549,target,canvas.Screen,12_0_0_24_5,response,768.6999999999971,107804.69999999925,107799.9,107814.3,108583.0,108601.69999999925,2024-10-01T09:28:19.701Z,108627.6,response_manmade,keypress(m),stair,STAIR,Con_Synth,long,congruent,m,m,False
4549,Trial Sequence,flow.Sequence,12_0_0_24,completion,1525.5,107046.59999999963,107049.69,107057.5,108583.0,108601.90000000037,2024-10-01T09:28:19.701Z,108627.6,,,stair,STAIR,Con_Synth,long,congruent,m,,
4549,fixation,canvas.Screen,12_0_0_25_0,timeout,542.6999999999971,108602.0,108597.602,108627.6,109152.7,109155.30000000075,2024-10-01T09:28:20.254Z,109170.3,,,arrow,ARROW,Con_Synth,long,congruent,m,,
4549,mask1,canvas.Screen,12_0_0_25_1,timeout,49.30000000000291,109155.59999999963,109152.7,109170.3,109203.7,109204.69999999925,2024-10-01T09:28:20.304Z,109219.6,,,arrow,ARROW,Con_Synth,long,congruent,m,,
4549,prime,canvas.Screen,12_0_0_25_2,timeout,43.0,109204.90000000037,109203.7,109219.6,109246.7,109251.40000000037,2024-10-01T09:28:20.350Z,109262.6,,,arrow,ARROW,Con_Synth,long,congruent,m,,
4549,mask2,canvas.Screen,12_0_0_25_3,timeout,40.0,109251.80000000075,109246.7,109262.6,109291.8,109298.0,2024-10-01T09:28:20.397Z,109302.6,,,arrow,ARROW,Con_Synth,long,congruent,m,,
4549,DELAY,canvas.Screen,12_0_0_25_4,timeout,87.59999999999127,109298.30000000075,109291.8,109302.6,109373.2,109374.09999999963,2024-10-01T09:28:20.473Z,109390.2,,,arrow,ARROW,Con_Synth,long,congruent,m,,
4549,target,canvas.Screen,12_0_0_25_5,response,1339.600000000748,109374.19999999925,109373.2,109390.2,110729.80000000075,110746.80000000075,2024-10-01T09:28:21.846Z,110765.5,response_manmade,keypress(m),arrow,ARROW,Con_Synth,long,congruent,m,m,False
4549,Trial Sequence,flow.Sequence,12_0_0_25,completion,2102.2000000007392,108602.0,108597.602,108627.6,110729.80000000075,110747.0,2024-10-01T09:28:21.846Z,110765.5,,,arrow,ARROW,Con_Synth,long,congruent,m,,
4549,fixation,canvas.Screen,12_0_0_26_0,timeout,544.3000000000029,110747.0,110740.146,110765.5,111293.3,111294.30000000075,2024-10-01T09:28:22.393Z,111309.8,,,moss,MOSS,Con_Nat,long,congruent,n,,
4549,mask1,canvas.Screen,12_0_0_26_1,timeout,44.80000000000291,111294.5,111293.3,111309.8,111339.1,111345.0,2024-10-01T09:28:22.444Z,111354.6,,,moss,MOSS,Con_Nat,long,congruent,n,,
4549,prime,canvas.Screen,12_0_0_26_2,timeout,47.19999999999709,111345.09999999963,111339.1,111354.6,111385.2,111387.69999999925,2024-10-01T09:28:22.487Z,111401.8,,,moss,MOSS,Con_Nat,long,congruent,n,,
4549,mask2,canvas.Screen,12_0_0_26_3,timeout,42.09999999999127,111388.09999999963,111385.2,111401.8,111429.2,111432.69999999925,2024-10-01T09:28:22.532Z,111443.9,,,moss,MOSS,Con_Nat,long,congruent,n,,
4549,DELAY,canvas.Screen,12_0_0_26_4,timeout,77.90000000000873,111432.90000000037,111429.2,111443.9,111509.0,111510.09999999963,2024-10-01T09:28:22.609Z,111521.8,,,moss,MOSS,Con_Nat,long,congruent,n,,
4549,target,canvas.Screen,12_0_0_26_5,response,564.5000000007421,111510.30000000075,111509.0,111521.8,112086.30000000075,112093.80000000075,2024-10-01T09:28:23.193Z,112110.8,response_natural,keypress(n),moss,MOSS,Con_Nat,long,congruent,n,n,False
4549,Trial Sequence,flow.Sequence,12_0_0_26,completion,1320.800000000745,110747.0,110740.146,110765.5,112086.30000000075,112094.0,2024-10-01T09:28:23.193Z,112110.8,,,moss,MOSS,Con_Nat,long,congruent,n,,
4549,fixation,canvas.Screen,12_0_0_27_0,timeout,542.3000000000029,112094.0,112105.11,112110.8,112637.3,112638.5,2024-10-01T09:28:23.737Z,112653.1,,,swan,SWAN,Con_Nat,long,congruent,n,,
4549,mask1,canvas.Screen,12_0_0_27_1,timeout,50.69999999999709,112638.80000000075,112637.3,112653.1,112686.4,112687.59999999963,2024-10-01T09:28:23.786Z,112703.8,,,swan,SWAN,Con_Nat,long,congruent,n,,
4549,prime,canvas.Screen,12_0_0_27_2,timeout,42.09999999999127,112687.90000000037,112686.4,112703.8,112732.1,112734.30000000075,2024-10-01T09:28:23.833Z,112745.9,,,swan,SWAN,Con_Nat,long,congruent,n,,
4549,mask2,canvas.Screen,12_0_0_27_3,timeout,42.10000000000582,112734.40000000037,112732.1,112745.9,112774.0,112779.30000000075,2024-10-01T09:28:23.878Z,112788.0,,,swan,SWAN,Con_Nat,long,congruent,n,,
4549,DELAY,canvas.Screen,12_0_0_27_4,timeout,71.89999999999418,112779.5,112774.0,112788.0,112846.9,112849.09999999963,2024-10-01T09:28:23.948Z,112859.9,,,swan,SWAN,Con_Nat,long,congruent,n,,
4549,target,canvas.Screen,12_0_0_27_5,response,1100.0000000003783,112849.30000000075,112846.9,112859.9,113959.90000000037,113967.90000000037,2024-10-01T09:28:25.067Z,113986.0,response_natural,keypress(n),swan,SWAN,Con_Nat,long,congruent,n,n,False
4549,Trial Sequence,flow.Sequence,12_0_0_27,completion,1849.1000000003696,112094.0,112105.11,112110.8,113959.90000000037,113968.40000000037,2024-10-01T09:28:25.067Z,113986.0,,,swan,SWAN,Con_Nat,long,congruent,n,,
4549,fixation,canvas.Screen,12_0_0_28_0,timeout,536.6000000000058,113968.5,113976.522,113986.0,114505.9,114508.0,2024-10-01T09:28:25.607Z,114522.6,,,crate,CRATE,Con_Synth,long,congruent,m,,
4549,mask1,canvas.Screen,12_0_0_28_1,timeout,51.0,114508.19999999925,114505.9,114522.6,114556.9,114558.09999999963,2024-10-01T09:28:25.657Z,114573.6,,,crate,CRATE,Con_Synth,long,congruent,m,,
4549,prime,canvas.Screen,12_0_0_28_2,timeout,38.29999999998836,114558.40000000037,114556.9,114573.6,114601.0,114603.40000000037,2024-10-01T09:28:25.702Z,114611.9,,,crate,CRATE,Con_Synth,long,congruent,m,,
4549,mask2,canvas.Screen,12_0_0_28_3,timeout,46.40000000000873,114603.59999999963,114601.0,114611.9,114642.6,114647.59999999963,2024-10-01T09:28:25.746Z,114658.3,,,crate,CRATE,Con_Synth,long,congruent,m,,
4549,DELAY,canvas.Screen,12_0_0_28_4,timeout,83.19999999999709,114648.0,114642.6,114658.3,114727.2,114734.30000000075,2024-10-01T09:28:25.833Z,114741.5,,,crate,CRATE,Con_Synth,long,congruent,m,,
4549,target,canvas.Screen,12_0_0_28_5,response,1158.699999999255,114734.59999999963,114727.2,114741.5,115900.19999999925,115919.90000000037,2024-10-01T09:28:27.019Z,115936.4,response_manmade,keypress(m),crate,CRATE,Con_Synth,long,congruent,m,m,False
4549,Trial Sequence,flow.Sequence,12_0_0_28,completion,1914.199999999255,113968.40000000037,113976.522,113986.0,115900.19999999925,115920.0,2024-10-01T09:28:27.019Z,115936.4,,,crate,CRATE,Con_Synth,long,congruent,m,,
4549,fixation,canvas.Screen,12_0_0_29_0,timeout,542.8000000000029,115920.09999999963,115908.12,115936.4,116462.6,116465.19999999925,2024-10-01T09:28:27.564Z,116479.2,,,stove,STOVE,Con_Synth,long,congruent,m,,
4549,mask1,canvas.Screen,12_0_0_29_1,timeout,45.80000000000291,116465.5,116462.6,116479.2,116513.6,116514.90000000037,2024-10-01T09:28:27.613Z,116525.0,,,stove,STOVE,Con_Synth,long,congruent,m,,
4549,prime,canvas.Screen,12_0_0_29_2,timeout,47.39999999999418,116515.0,116513.6,116525.0,116555.3,116559.0,2024-10-01T09:28:27.658Z,116572.4,,,stove,STOVE,Con_Synth,long,congruent,m,,
4549,mask2,canvas.Screen,12_0_0_29_3,timeout,42.60000000000582,116559.30000000075,116555.3,116572.4,116601.1,116606.30000000075,2024-10-01T09:28:27.705Z,116615.0,,,stove,STOVE,Con_Synth,long,congruent,m,,
4549,DELAY,canvas.Screen,12_0_0_29_4,timeout,77.30000000000291,116606.40000000037,116601.1,116615.0,116679.2,116680.40000000037,2024-10-01T09:28:27.779Z,116692.3,,,stove,STOVE,Con_Synth,long,congruent,m,,
4549,target,canvas.Screen,12_0_0_29_5,timeout,2007.699999999997,116680.69999999925,116679.2,116692.3,118684.3,118685.90000000037,2024-10-01T09:28:29.784Z,118700.0,,,stove,STOVE,Con_Synth,long,congruent,m,,
4549,Trial Sequence,flow.Sequence,12_0_0_29,completion,2747.9000000000087,115920.09999999963,115908.12,115936.4,118684.3,118700.5,2024-10-01T09:28:29.799Z,118700.0,,,stove,STOVE,Con_Synth,long,congruent,m,,
4549,fixation,canvas.Screen,12_0_0_30_0,timeout,544.5,118700.80000000075,118684.3,118700.0,119227.1,119229.09999999963,2024-10-01T09:28:30.328Z,119244.5,,,wire,CABIN,Inc_Synth_Synth,long,incongruent,m,,
4549,mask1,canvas.Screen,12_0_0_30_1,timeout,45.80000000000291,119229.40000000037,119227.1,119244.5,119272.9,119279.40000000037,2024-10-01T09:28:30.378Z,119290.3,,,wire,CABIN,Inc_Synth_Synth,long,incongruent,m,,
4549,prime,canvas.Screen,12_0_0_30_2,timeout,45.30000000000291,119279.59999999963,119272.9,119290.3,119320.2,119323.0,2024-10-01T09:28:30.421Z,119335.6,,,wire,CABIN,Inc_Synth_Synth,long,incongruent,m,,
4549,mask2,canvas.Screen,12_0_0_30_3,timeout,43.29999999998836,119323.30000000075,119320.2,119335.6,119365.2,119371.19999999925,2024-10-01T09:28:30.470Z,119378.9,,,wire,CABIN,Inc_Synth_Synth,long,incongruent,m,,
4549,DELAY,canvas.Screen,12_0_0_30_4,timeout,84.70000000001164,119371.5,119365.2,119378.9,119449.4,119455.40000000037,2024-10-01T09:28:30.554Z,119463.6,,,wire,CABIN,Inc_Synth_Synth,long,incongruent,m,,
4549,target,canvas.Screen,12_0_0_30_5,response,1331.5999999992491,119455.5,119449.4,119463.6,120795.19999999925,120803.30000000075,2024-10-01T09:28:31.902Z,120822.7,response_manmade,keypress(m),wire,CABIN,Inc_Synth_Synth,long,incongruent,m,m,False
4549,Trial Sequence,flow.Sequence,12_0_0_30,completion,2095.199999999255,118700.69999999925,118684.3,118700.0,120795.19999999925,120803.59999999963,2024-10-01T09:28:31.902Z,120822.7,,,wire,CABIN,Inc_Synth_Synth,long,incongruent,m,,
4549,fixation,canvas.Screen,12_0_0_31_0,timeout,538.5,120803.69999999925,120796.88,120822.7,121344.7,121345.80000000075,2024-10-01T09:28:32.444Z,121361.2,,,fort,GOAT,Inc_Synth_Nat,long,incongruent,n,,
4549,mask1,canvas.Screen,12_0_0_31_1,timeout,46.0,121346.0,121344.7,121361.2,121394.7,121395.90000000037,2024-10-01T09:28:32.494Z,121407.2,,,fort,GOAT,Inc_Synth_Nat,long,incongruent,n,,
4549,prime,canvas.Screen,12_0_0_31_2,timeout,46.80000000000291,121396.19999999925,121394.7,121407.2,121437.3,121441.19999999925,2024-10-01T09:28:32.539Z,121454.0,,,fort,GOAT,Inc_Synth_Nat,long,incongruent,n,,
4549,mask2,canvas.Screen,12_0_0_31_3,timeout,41.30000000000291,121441.30000000075,121437.3,121454.0,121479.8,121482.90000000037,2024-10-01T09:28:32.581Z,121495.3,,,fort,GOAT,Inc_Synth_Nat,long,incongruent,n,,
4549,DELAY,canvas.Screen,12_0_0_31_4,timeout,84.0,121483.09999999963,121479.8,121495.3,121561.0,121561.80000000075,2024-10-01T09:28:32.660Z,121579.3,,,fort,GOAT,Inc_Synth_Nat,long,incongruent,n,,
4549,target,canvas.Screen,12_0_0_31_5,response,636.7999999996246,121562.0,121561.0,121579.3,122216.09999999963,122223.69999999925,2024-10-01T09:28:33.322Z,122238.4,response_natural,keypress(n),fort,GOAT,Inc_Synth_Nat,long,incongruent,n,n,False
4549,Trial Sequence,flow.Sequence,12_0_0_31,completion,1393.3999999996304,120803.69999999925,120796.88,120822.7,122216.09999999963,122223.90000000037,2024-10-01T09:28:33.322Z,122238.4,,,fort,GOAT,Inc_Synth_Nat,long,incongruent,n,,
4549,fixation,canvas.Screen,12_0_0_32_0,timeout,541.9000000000087,122224.09999999963,122229.274,122238.4,122763.5,122764.69999999925,2024-10-01T09:28:33.863Z,122780.3,,,flute,FLUTE,Con_Synth,long,congruent,m,,
4549,mask1,canvas.Screen,12_0_0_32_1,timeout,49.09999999999127,122765.0,122763.5,122780.3,122813.7,122814.90000000037,2024-10-01T09:28:33.913Z,122829.4,,,flute,FLUTE,Con_Synth,long,congruent,m,,
4549,prime,canvas.Screen,12_0_0_32_2,timeout,43.70000000001164,122815.0,122813.7,122829.4,122857.2,122860.90000000037,2024-10-01T09:28:33.959Z,122873.1,,,flute,FLUTE,Con_Synth,long,congruent,m,,
4549,mask2,canvas.Screen,12_0_0_32_3,timeout,42.39999999999418,122861.19999999925,122857.2,122873.1,122901.6,122907.40000000037,2024-10-01T09:28:34.006Z,122915.5,,,flute,FLUTE,Con_Synth,long,congruent,m,,
4549,DELAY,canvas.Screen,12_0_0_32_4,timeout,83.30000000000291,122907.69999999925,122901.6,122915.5,122983.7,122987.59999999963,2024-10-01T09:28:34.086Z,122998.8,,,flute,FLUTE,Con_Synth,long,congruent,m,,
4549,target,canvas.Screen,12_0_0_32_5,response,735.399999999252,122987.69999999925,122983.7,122998.8,123734.19999999925,123741.59999999963,2024-10-01T09:28:34.840Z,123760.3,response_natural,keypress(n),flute,FLUTE,Con_Synth,long,congruent,m,m,False
4549,Trial Sequence,flow.Sequence,12_0_0_32,completion,1495.7999999992608,122224.09999999963,122229.274,122238.4,123734.19999999925,123742.0,2024-10-01T09:28:34.840Z,123760.3,,,flute,FLUTE,Con_Synth,long,congruent,m,,
4549,fixation,canvas.Screen,12_0_0_33_0,timeout,541.6999999999971,123742.09999999963,123732.104,123760.3,124286.4,124287.59999999963,2024-10-01T09:28:35.386Z,124302.0,,,linen,LINEN,Con_Synth,long,congruent,m,,
4549,mask1,canvas.Screen,12_0_0_33_1,timeout,46.80000000000291,124287.80000000075,124286.4,124302.0,124336.4,124337.59999999963,2024-10-01T09:28:35.436Z,124348.8,,,linen,LINEN,Con_Synth,long,congruent,m,,
4549,prime,canvas.Screen,12_0_0_33_2,timeout,42.59999999999127,124337.80000000075,124336.4,124348.8,124379.0,124383.40000000037,2024-10-01T09:28:35.482Z,124391.4,,,linen,LINEN,Con_Synth,long,congruent,m,,
4549,mask2,canvas.Screen,12_0_0_33_3,timeout,45.5,124383.5,124379.0,124391.4,124421.6,124425.69999999925,2024-10-01T09:28:35.524Z,124436.9,,,linen,LINEN,Con_Synth,long,congruent,m,,
4549,DELAY,canvas.Screen,12_0_0_33_4,timeout,84.5,124425.90000000037,124421.6,124436.9,124505.3,124508.30000000075,2024-10-01T09:28:35.606Z,124521.4,,,linen,LINEN,Con_Synth,long,congruent,m,,
4549,target,canvas.Screen,12_0_0_33_5,response,773.5000000003783,124508.59999999963,124505.3,124521.4,125294.90000000037,125302.40000000037,2024-10-01T09:28:36.401Z,125314.3,response_manmade,keypress(m),linen,LINEN,Con_Synth,long,congruent,m,m,False
4549,Trial Sequence,flow.Sequence,12_0_0_33,completion,1534.6000000003696,123742.09999999963,123732.104,123760.3,125294.90000000037,125302.69999999925,2024-10-01T09:28:36.401Z,125314.3,,,linen,LINEN,Con_Synth,long,congruent,m,,
4549,fixation,canvas.Screen,12_0_0_34_0,timeout,541.5999999999913,125302.90000000037,125304.702,125314.3,125838.6,125841.09999999963,2024-10-01T09:28:36.939Z,125855.9,,,wasp,WASP,Con_Nat,long,congruent,n,,
4549,mask1,canvas.Screen,12_0_0_34_1,timeout,50.30000000000291,125841.5,125838.6,125855.9,125889.6,125890.59999999963,2024-10-01T09:28:36.989Z,125906.2,,,wasp,WASP,Con_Nat,long,congruent,n,,
4549,prime,canvas.Screen,12_0_0_34_2,timeout,42.5,125890.80000000075,125889.6,125906.2,125932.7,125937.19999999925,2024-10-01T09:28:37.035Z,125948.7,,,wasp,WASP,Con_Nat,long,congruent,n,,
4549,mask2,canvas.Screen,12_0_0_34_3,timeout,39.69999999999709,125937.40000000037,125932.7,125948.7,125977.4,125982.30000000075,2024-10-01T09:28:37.080Z,125988.4,,,wasp,WASP,Con_Nat,long,congruent,n,,
4549,DELAY,canvas.Screen,12_0_0_34_4,timeout,73.10000000000582,125982.5,125977.4,125988.4,126049.3,126050.5,2024-10-01T09:28:37.149Z,126061.5,,,wasp,WASP,Con_Nat,long,congruent,n,,
4549,target,canvas.Screen,12_0_0_34_5,response,825.5999999996275,126050.80000000075,126049.3,126061.5,126887.09999999963,126894.09999999963,2024-10-01T09:28:37.992Z,126904.9,response_natural,keypress(n),wasp,WASP,Con_Nat,long,congruent,n,n,False
4549,Trial Sequence,flow.Sequence,12_0_0_34,completion,1572.7999999996246,125302.90000000037,125304.702,125314.3,126887.09999999963,126894.40000000037,2024-10-01T09:28:37.992Z,126904.9,,,wasp,WASP,Con_Nat,long,congruent,n,,
4549,fixation,canvas.Screen,12_0_0_35_0,timeout,543.0,126894.59999999963,126894.8,126904.9,127431.5,127432.69999999925,2024-10-01T09:28:38.531Z,127447.9,,,barn,TUNA,Inc_Synth_Nat,long,incongruent,n,,
4549,mask1,canvas.Screen,12_0_0_35_1,timeout,49.30000000000291,127432.80000000075,127431.5,127447.9,127481.4,127482.5,2024-10-01T09:28:38.581Z,127497.2,,,barn,TUNA,Inc_Synth_Nat,long,incongruent,n,,
4549,prime,canvas.Screen,12_0_0_35_2,timeout,43.60000000000582,127482.80000000075,127481.4,127497.2,127527.2,127533.30000000075,2024-10-01T09:28:38.631Z,127540.8,,,barn,TUNA,Inc_Synth_Nat,long,incongruent,n,,
4549,mask2,canvas.Screen,12_0_0_35_3,timeout,40.59999999999127,127533.69999999925,127527.2,127540.8,127568.9,127569.80000000075,2024-10-01T09:28:38.668Z,127581.4,,,barn,TUNA,Inc_Synth_Nat,long,incongruent,n,,
4549,DELAY,canvas.Screen,12_0_0_35_4,timeout,84.10000000000582,127570.09999999963,127568.9,127581.4,127651.0,127655.80000000075,2024-10-01T09:28:38.754Z,127665.5,,,barn,TUNA,Inc_Synth_Nat,long,incongruent,n,,
4549,target,canvas.Screen,12_0_0_35_5,response,1171.300000000745,127656.09999999963,127651.0,127665.5,128836.80000000075,128851.80000000075,2024-10-01T09:28:39.950Z,128877.4,response_natural,keypress(n),barn,TUNA,Inc_Synth_Nat,long,incongruent,n,n,False
4549,Trial Sequence,flow.Sequence,12_0_0_35,completion,1931.9000000007509,126894.5,126894.8,126904.9,128836.80000000075,128852.0,2024-10-01T09:28:39.950Z,128877.4,,,barn,TUNA,Inc_Synth_Nat,long,incongruent,n,,
4549,fixation,canvas.Screen,12_0_0_36_0,timeout,536.8000000000029,128852.09999999963,128848.786,128877.4,129397.7,129398.90000000037,2024-10-01T09:28:40.497Z,129414.2,,,boar,BOAR,Con_Nat,long,congruent,n,,
4549,mask1,canvas.Screen,12_0_0_36_1,timeout,45.0,129399.09999999963,129397.7,129414.2,129447.8,129448.90000000037,2024-10-01T09:28:40.547Z,129459.2,,,boar,BOAR,Con_Nat,long,congruent,n,,
4549,prime,canvas.Screen,12_0_0_36_2,timeout,43.69999999999709,129449.19999999925,129447.8,129459.2,129490.9,129494.5,2024-10-01T09:28:40.592Z,129502.9,,,boar,BOAR,Con_Nat,long,congruent,n,,
4549,mask2,canvas.Screen,12_0_0_36_3,timeout,44.90000000000873,129494.80000000075,129490.9,129502.9,129532.3,129536.90000000037,2024-10-01T09:28:40.635Z,129547.8,,,boar,BOAR,Con_Nat,long,congruent,n,,
4549,DELAY,canvas.Screen,12_0_0_36_4,timeout,84.39999999999418,129537.09999999963,129532.3,129547.8,129614.4,129615.5,2024-10-01T09:28:40.713Z,129632.2,,,boar,BOAR,Con_Nat,long,congruent,n,,
4549,target,canvas.Screen,12_0_0_36_5,response,698.600000000748,129615.80000000075,129614.4,129632.2,130330.80000000075,130337.0,2024-10-01T09:28:41.435Z,130359.7,response_natural,keypress(n),boar,BOAR,Con_Nat,long,congruent,n,n,False
4549,Trial Sequence,flow.Sequence,12_0_0_36,completion,1453.4000000007509,128852.0,128848.786,128877.4,130330.80000000075,130337.30000000075,2024-10-01T09:28:41.435Z,130359.7,,,boar,BOAR,Con_Nat,long,congruent,n,,
4549,fixation,canvas.Screen,12_0_0_37_0,timeout,541.9000000000087,130337.40000000037,130333.0,130359.7,130885.9,130887.5,2024-10-01T09:28:41.985Z,130901.6,,,shell,DIRT,Inc_Nat_Nat,long,incongruent,m,,
4549,mask1,canvas.Screen,12_0_0_37_1,timeout,55.09999999999127,130887.80000000075,130885.9,130901.6,130935.5,130937.0,2024-10-01T09:28:42.035Z,130956.7,,,shell,DIRT,Inc_Nat_Nat,long,incongruent,m,,
4549,prime,canvas.Screen,12_0_0_37_2,timeout,38.5,130937.09999999963,130935.5,130956.7,130977.3,130978.09999999963,2024-10-01T09:28:42.076Z,130995.2,,,shell,DIRT,Inc_Nat_Nat,long,incongruent,m,,
4549,mask2,canvas.Screen,12_0_0_37_3,timeout,43.69999999999709,130978.30000000075,130977.3,130995.2,131024.6,131025.80000000075,2024-10-01T09:28:42.124Z,131038.9,,,shell,DIRT,Inc_Nat_Nat,long,incongruent,m,,
4549,DELAY,canvas.Screen,12_0_0_37_4,timeout,76.70000000001164,131026.09999999963,131024.6,131038.9,131103.6,131105.0,2024-10-01T09:28:42.203Z,131115.6,,,shell,DIRT,Inc_Nat_Nat,long,incongruent,m,,
4549,target,canvas.Screen,12_0_0_37_5,response,743.4999999996217,131105.19999999925,131103.6,131115.6,131859.09999999963,131866.90000000037,2024-10-01T09:28:42.965Z,131889.6,response_natural,keypress(n),shell,DIRT,Inc_Nat_Nat,long,incongruent,m,m,False
4549,Trial Sequence,flow.Sequence,12_0_0_37,completion,1499.3999999996304,130337.40000000037,130333.0,130359.7,131859.09999999963,131867.5,2024-10-01T09:28:42.965Z,131889.6,,,shell,DIRT,Inc_Nat_Nat,long,incongruent,m,,
4549,fixation,canvas.Screen,12_0_0_38_0,timeout,543.0,131867.69999999925,131865.57,131889.6,132416.2,132417.40000000037,2024-10-01T09:28:43.515Z,132432.6,,,moose,PORCH,Inc_Nat_Synth,long,incongruent,m,,
4549,mask1,canvas.Screen,12_0_0_38_1,timeout,46.10000000000582,132417.80000000075,132416.2,132432.6,132466.2,132467.0,2024-10-01T09:28:43.565Z,132478.7,,,moose,PORCH,Inc_Nat_Synth,long,incongruent,m,,
4549,prime,canvas.Screen,12_0_0_38_2,timeout,41.89999999999418,132467.09999999963,132466.2,132478.7,132509.6,132513.19999999925,2024-10-01T09:28:43.611Z,132520.6,,,moose,PORCH,Inc_Nat_Synth,long,incongruent,m,,
4549,mask2,canvas.Screen,12_0_0_38_3,timeout,46.79999999998836,132513.40000000037,132509.6,132520.6,132551.0,132556.0,2024-10-01T09:28:43.654Z,132567.4,,,moose,PORCH,Inc_Nat_Synth,long,incongruent,m,,
4549,DELAY,canvas.Screen,12_0_0_38_4,timeout,82.30000000001746,132556.30000000075,132551.0,132567.4,132635.5,132640.19999999925,2024-10-01T09:28:43.738Z,132649.7,,,moose,PORCH,Inc_Nat_Synth,long,incongruent,m,,
4549,target,canvas.Screen,12_0_0_38_5,response,822.2999999999884,132640.40000000037,132635.5,132649.7,133472.0,133480.30000000075,2024-10-01T09:28:44.578Z,133494.4,response_manmade,keypress(m),moose,PORCH,Inc_Nat_Synth,long,incongruent,m,m,False
4549,Trial Sequence,flow.Sequence,12_0_0_38,completion,1582.3999999999942,131867.59999999963,131865.57,131889.6,133472.0,133480.59999999963,2024-10-01T09:28:44.578Z,133494.4,,,moose,PORCH,Inc_Nat_Synth,long,incongruent,m,,
4549,fixation,canvas.Screen,12_0_0_39_0,timeout,542.8999999999942,133480.69999999925,133466.334,133494.4,134021.3,134022.90000000037,2024-10-01T09:28:45.121Z,134037.3,,,scarf,SCARF,Con_Synth,long,congruent,m,,
4549,mask1,canvas.Screen,12_0_0_39_1,timeout,55.20000000001164,134023.09999999963,134021.3,134037.3,134070.4,134071.5,2024-10-01T09:28:45.169Z,134092.5,,,scarf,SCARF,Con_Synth,long,congruent,m,,
4549,prime,canvas.Screen,12_0_0_39_2,timeout,55.0,134071.80000000075,134070.4,134092.5,134129.2,134130.59999999963,2024-10-01T09:28:45.228Z,134147.5,,,scarf,SCARF,Con_Synth,long,congruent,m,,
4549,mask2,canvas.Screen,12_0_0_39_3,timeout,37.79999999998836,134130.90000000037,134129.2,134147.5,134174.6,134178.30000000075,2024-10-01T09:28:45.276Z,134185.3,,,scarf,SCARF,Con_Synth,long,congruent,m,,
4549,DELAY,canvas.Screen,12_0_0_39_4,timeout,88.90000000002328,134178.5,134174.6,134185.3,134259.9,134261.0,2024-10-01T09:28:45.359Z,134274.2,,,scarf,SCARF,Con_Synth,long,congruent,m,,
4549,target,canvas.Screen,12_0_0_39_5,response,765.7000000003609,134261.19999999925,134259.9,134274.2,135039.90000000037,135060.30000000075,2024-10-01T09:28:46.158Z,135083.7,response_manmade,keypress(m),scarf,SCARF,Con_Synth,long,congruent,m,m,False
4549,Trial Sequence,flow.Sequence,12_0_0_39,completion,1545.5000000003783,133480.69999999925,133466.334,133494.4,135039.90000000037,135060.5,2024-10-01T09:28:46.158Z,135083.7,,,scarf,SCARF,Con_Synth,long,congruent,m,,
4549,fixation,canvas.Screen,12_0_0_40_0,timeout,542.0,135060.59999999963,135057.502,135083.7,135608.7,135611.09999999963,2024-10-01T09:28:46.709Z,135625.7,,,taxi,CHAIN,Inc_Synth_Synth,long,incongruent,m,,
4549,mask1,canvas.Screen,12_0_0_40_1,timeout,46.0,135611.30000000075,135608.7,135625.7,135659.6,135660.80000000075,2024-10-01T09:28:46.758Z,135671.7,,,taxi,CHAIN,Inc_Synth_Synth,long,incongruent,m,,
4549,prime,canvas.Screen,12_0_0_40_2,timeout,43.39999999999418,135661.09999999963,135659.6,135671.7,135703.0,135706.5,2024-10-01T09:28:46.804Z,135715.1,,,taxi,CHAIN,Inc_Synth_Synth,long,incongruent,m,,
4549,mask2,canvas.Screen,12_0_0_40_3,timeout,46.39999999999418,135706.80000000075,135703.0,135715.1,135745.2,135750.30000000075,2024-10-01T09:28:46.848Z,135761.5,,,taxi,CHAIN,Inc_Synth_Synth,long,incongruent,m,,
4549,DELAY,canvas.Screen,12_0_0_40_4,timeout,83.79999999998836,135750.5,135745.2,135761.5,135830.1,135834.80000000075,2024-10-01T09:28:46.932Z,135845.3,,,taxi,CHAIN,Inc_Synth_Synth,long,incongruent,m,,
4549,target,canvas.Screen,12_0_0_40_5,response,723.5000000007567,135834.90000000037,135830.1,135845.3,136568.80000000075,136576.5,2024-10-01T09:28:47.674Z,136605.6,response_manmade,keypress(m),taxi,CHAIN,Inc_Synth_Synth,long,incongruent,m,m,False
4549,Trial Sequence,flow.Sequence,12_0_0_40,completion,1485.1000000007334,135060.5,135057.502,135083.7,136568.80000000075,136576.80000000075,2024-10-01T09:28:47.674Z,136605.6,,,taxi,CHAIN,Inc_Synth_Synth,long,incongruent,m,,
4549,fixation,canvas.Screen,12_0_0_41_0,timeout,540.3999999999942,136577.0,136588.0,136605.6,137130.4,137131.59999999963,2024-10-01T09:28:48.229Z,137146.0,,,bowl,WOLF,Inc_Synth_Nat,long,incongruent,n,,
4549,mask1,canvas.Screen,12_0_0_41_1,timeout,49.89999999999418,137131.69999999925,137130.4,137146.0,137180.5,137181.19999999925,2024-10-01T09:28:48.279Z,137195.9,,,bowl,WOLF,Inc_Synth_Nat,long,incongruent,n,,
4549,prime,canvas.Screen,12_0_0_41_2,timeout,49.30000000001746,137181.30000000075,137180.5,137195.9,137225.6,137232.69999999925,2024-10-01T09:28:48.330Z,137245.2,,,bowl,WOLF,Inc_Synth_Nat,long,incongruent,n,,
4549,mask2,canvas.Screen,12_0_0_41_3,timeout,48.09999999997672,137232.90000000037,137225.6,137245.2,137281.6,137282.90000000037,2024-10-01T09:28:48.380Z,137293.3,,,bowl,WOLF,Inc_Synth_Nat,long,incongruent,n,,
4549,DELAY,canvas.Screen,12_0_0_41_4,timeout,91.5,137283.09999999963,137281.6,137293.3,137369.9,137371.0,2024-10-01T09:28:48.468Z,137384.8,,,bowl,WOLF,Inc_Synth_Nat,long,incongruent,n,,
4549,target,canvas.Screen,12_0_0_41_5,response,1033.2000000000116,137371.19999999925,137369.9,137384.8,138418.0,138425.69999999925,2024-10-01T09:28:49.523Z,138441.4,response_natural,keypress(n),bowl,WOLF,Inc_Synth_Nat,long,incongruent,n,n,False
4549,Trial Sequence,flow.Sequence,12_0_0_41,completion,1812.3999999999942,136576.90000000037,136588.0,136605.6,138418.0,138425.90000000037,2024-10-01T09:28:49.523Z,138441.4,,,bowl,WOLF,Inc_Synth_Nat,long,incongruent,n,,
4549,fixation,canvas.Screen,12_0_0_42_0,timeout,542.8000000000175,138426.09999999963,138418.092,138441.4,138968.5,138969.59999999963,2024-10-01T09:28:50.067Z,138984.2,,,storm,LAND,Inc_Nat_Nat,long,incongruent,m,,
4549,mask1,canvas.Screen,12_0_0_42_1,timeout,50.69999999998254,138969.80000000075,138968.5,138984.2,139017.3,139019.69999999925,2024-10-01T09:28:50.117Z,139034.9,,,storm,LAND,Inc_Nat_Nat,long,incongruent,m,,
4549,prime,canvas.Screen,12_0_0_42_2,timeout,43.20000000001164,139020.09999999963,139017.3,139034.9,139061.8,139065.0,2024-10-01T09:28:50.162Z,139078.1,,,storm,LAND,Inc_Nat_Nat,long,incongruent,m,,
4549,mask2,canvas.Screen,12_0_0_42_3,timeout,41.79999999998836,139065.19999999925,139061.8,139078.1,139103.8,139108.69999999925,2024-10-01T09:28:50.206Z,139119.9,,,storm,LAND,Inc_Nat_Nat,long,incongruent,m,,
4549,DELAY,canvas.Screen,12_0_0_42_4,timeout,83.70000000001164,139109.09999999963,139103.8,139119.9,139188.9,139192.69999999925,2024-10-01T09:28:50.290Z,139203.6,,,storm,LAND,Inc_Nat_Nat,long,incongruent,m,,
4549,target,canvas.Screen,12_0_0_42_5,response,1387.2000000007392,139192.90000000037,139188.9,139203.6,140590.80000000075,140598.19999999925,2024-10-01T09:28:51.695Z,140615.8,response_natural,keypress(n),storm,LAND,Inc_Nat_Nat,long,incongruent,m,m,False
4549,Trial Sequence,flow.Sequence,12_0_0_42,completion,2149.400000000751,138426.09999999963,138418.092,138441.4,140590.80000000075,140598.5,2024-10-01T09:28:51.696Z,140615.8,,,storm,LAND,Inc_Nat_Nat,long,incongruent,m,,
4549,fixation,canvas.Screen,12_0_0_43_0,timeout,539.0,140598.59999999963,140586.878,140615.8,141138.8,141139.80000000075,2024-10-01T09:28:52.237Z,141154.8,,,olive,MOTOR,Inc_Nat_Synth,long,incongruent,m,,
4549,mask1,canvas.Screen,12_0_0_43_1,timeout,50.60000000000582,141140.0,141138.8,141154.8,141188.0,141189.09999999963,2024-10-01T09:28:52.286Z,141205.4,,,olive,MOTOR,Inc_Nat_Synth,long,incongruent,m,,
4549,prime,canvas.Screen,12_0_0_43_2,timeout,42.20000000001164,141189.40000000037,141188.0,141205.4,141231.3,141234.40000000037,2024-10-01T09:28:52.332Z,141247.6,,,olive,MOTOR,Inc_Nat_Synth,long,incongruent,m,,
4549,mask2,canvas.Screen,12_0_0_43_3,timeout,42.89999999999418,141234.5,141231.3,141247.6,141274.3,141279.30000000075,2024-10-01T09:28:52.376Z,141290.5,,,olive,MOTOR,Inc_Nat_Synth,long,incongruent,m,,
4549,DELAY,canvas.Screen,12_0_0_43_4,timeout,84.10000000000582,141279.5,141274.3,141290.5,141358.9,141364.80000000075,2024-10-01T09:28:52.462Z,141374.6,,,olive,MOTOR,Inc_Nat_Synth,long,incongruent,m,,
4549,target,canvas.Screen,12_0_0_43_5,response,652.3999999999942,141365.0,141358.9,141374.6,142027.0,142035.40000000037,2024-10-01T09:28:53.133Z,142052.0,response_manmade,keypress(m),olive,MOTOR,Inc_Nat_Synth,long,incongruent,m,m,False
4549,Trial Sequence,flow.Sequence,12_0_0_43,completion,1411.2000000000116,140598.59999999963,140586.878,140615.8,142027.0,142035.80000000075,2024-10-01T09:28:53.133Z,142052.0,,,olive,MOTOR,Inc_Nat_Synth,long,incongruent,m,,
4549,fixation,canvas.Screen,12_0_0_44_0,timeout,542.8999999999942,142035.90000000037,142041.24,142052.0,142578.2,142579.40000000037,2024-10-01T09:28:53.677Z,142594.9,,,slug,SLUG,Con_Nat,long,congruent,n,,
4549,mask1,canvas.Screen,12_0_0_44_1,timeout,49.0,142579.69999999925,142578.2,142594.9,142628.0,142628.69999999925,2024-10-01T09:28:53.726Z,142643.9,,,slug,SLUG,Con_Nat,long,congruent,n,,
4549,prime,canvas.Screen,12_0_0_44_2,timeout,48.0,142628.90000000037,142628.0,142643.9,142672.3,142676.0,2024-10-01T09:28:53.773Z,142691.9,,,slug,SLUG,Con_Nat,long,congruent,n,,
4549,mask2,canvas.Screen,12_0_0_44_3,timeout,36.80000000001746,142676.19999999925,142672.3,142691.9,142711.8,142712.90000000037,2024-10-01T09:28:53.810Z,142728.7,,,slug,SLUG,Con_Nat,long,congruent,n,,
4549,DELAY,canvas.Screen,12_0_0_44_4,timeout,74.09999999997672,142713.19999999925,142711.8,142728.7,142789.7,142790.5,2024-10-01T09:28:53.888Z,142802.8,,,slug,SLUG,Con_Nat,long,congruent,n,,
4549,target,canvas.Screen,12_0_0_44_5,response,650.2999999996391,142790.69999999925,142789.7,142802.8,143453.09999999963,143473.80000000075,2024-10-01T09:28:54.571Z,143494.5,response_natural,keypress(n),slug,SLUG,Con_Nat,long,congruent,n,n,False
4549,Trial Sequence,flow.Sequence,12_0_0_44,completion,1401.0999999996275,142035.80000000075,142041.24,142052.0,143453.09999999963,143474.0,2024-10-01T09:28:54.571Z,143494.5,,,slug,SLUG,Con_Nat,long,congruent,n,,
4549,fixation,canvas.Screen,12_0_0_45_0,timeout,542.6000000000058,143474.09999999963,143469.44,143494.5,144019.9,144022.5,2024-10-01T09:28:55.120Z,144037.1,,,tongs,TONGS,Con_Synth,long,congruent,m,,
4549,mask1,canvas.Screen,12_0_0_45_1,timeout,49.0,144022.80000000075,144019.9,144037.1,144070.4,144071.40000000037,2024-10-01T09:28:55.168Z,144086.1,,,tongs,TONGS,Con_Synth,long,congruent,m,,
4549,prime,canvas.Screen,12_0_0_45_2,timeout,43.39999999999418,144071.69999999925,144070.4,144086.1,144114.2,144117.90000000037,2024-10-01T09:28:55.215Z,144129.5,,,tongs,TONGS,Con_Synth,long,congruent,m,,
4549,mask2,canvas.Screen,12_0_0_45_3,timeout,38.79999999998836,144118.19999999925,144114.2,144129.5,144157.8,144165.0,2024-10-01T09:28:55.262Z,144168.3,,,tongs,TONGS,Con_Synth,long,congruent,m,,
4549,DELAY,canvas.Screen,12_0_0_45_4,timeout,72.70000000001164,144165.19999999925,144157.8,144168.3,144228.1,144231.69999999925,2024-10-01T09:28:55.329Z,144241.0,,,tongs,TONGS,Con_Synth,long,congruent,m,,
4549,target,canvas.Screen,12_0_0_45_5,response,991.5,144232.0,144228.1,144241.0,145232.5,145250.90000000037,2024-10-01T09:28:56.348Z,145282.9,response_manmade,keypress(m),tongs,TONGS,Con_Synth,long,congruent,m,m,False
4549,Trial Sequence,flow.Sequence,12_0_0_45,completion,1738.0,143474.0,143469.44,143494.5,145232.5,145251.09999999963,2024-10-01T09:28:56.348Z,145282.9,,,tongs,TONGS,Con_Synth,long,congruent,m,,
4549,fixation,canvas.Screen,12_0_0_46_0,timeout,543.5,145251.19999999925,145240.96,145282.9,145808.8,145810.80000000075,2024-10-01T09:28:56.908Z,145826.4,,,soap,PONY,Inc_Synth_Nat,long,incongruent,n,,
4549,mask1,canvas.Screen,12_0_0_46_1,timeout,45.10000000000582,145811.0,145808.8,145826.4,145860.0,145861.0,2024-10-01T09:28:56.958Z,145871.5,,,soap,PONY,Inc_Synth_Nat,long,incongruent,n,,
4549,prime,canvas.Screen,12_0_0_46_2,timeout,46.70000000001164,145861.19999999925,145860.0,145871.5,145902.3,145906.40000000037,2024-10-01T09:28:57.003Z,145918.2,,,soap,PONY,Inc_Synth_Nat,long,incongruent,n,,
4549,mask2,canvas.Screen,12_0_0_46_3,timeout,49.09999999997672,145906.5,145902.3,145918.2,145939.0,145939.5,2024-10-01T09:28:57.036Z,145967.3,,,soap,PONY,Inc_Synth_Nat,long,incongruent,n,,
4549,DELAY,canvas.Screen,12_0_0_46_4,timeout,74.5,145939.5,145939.0,145967.3,146026.1,146027.09999999963,2024-10-01T09:28:57.124Z,146041.8,,,soap,PONY,Inc_Synth_Nat,long,incongruent,n,,
4549,target,canvas.Screen,12_0_0_46_5,response,970.7000000000116,146027.40000000037,146026.1,146041.8,147012.5,147030.30000000075,2024-10-01T09:28:58.127Z,147051.2,response_natural,keypress(n),soap,PONY,Inc_Synth_Nat,long,incongruent,n,n,False
4549,Trial Sequence,flow.Sequence,12_0_0_46,completion,1729.6000000000058,145251.19999999925,145240.96,145282.9,147012.5,147030.5,2024-10-01T09:28:58.127Z,147051.2,,,soap,PONY,Inc_Synth_Nat,long,incongruent,n,,
4549,fixation,canvas.Screen,12_0_0_47_0,timeout,541.5,147030.59999999963,147025.094,147051.2,147577.1,147578.19999999925,2024-10-01T09:28:58.675Z,147592.7,,,reef,REEF,Con_Nat,long,congruent,n,,
4549,mask1,canvas.Screen,12_0_0_47_1,timeout,50.09999999997672,147578.40000000037,147577.1,147592.7,147627.0,147628.30000000075,2024-10-01T09:28:58.725Z,147642.8,,,reef,REEF,Con_Nat,long,congruent,n,,
4549,prime,canvas.Screen,12_0_0_47_2,timeout,43.70000000001164,147628.5,147627.0,147642.8,147672.9,147679.0,2024-10-01T09:28:58.776Z,147686.5,,,reef,REEF,Con_Nat,long,congruent,n,,
4549,mask2,canvas.Screen,12_0_0_47_3,timeout,42.0,147679.30000000075,147672.9,147686.5,147715.0,147715.69999999925,2024-10-01T09:28:58.812Z,147728.5,,,reef,REEF,Con_Nat,long,congruent,n,,
4549,DELAY,canvas.Screen,12_0_0_47_4,timeout,82.39999999999418,147715.90000000037,147715.0,147728.5,147795.8,147800.40000000037,2024-10-01T09:28:58.897Z,147810.9,,,reef,REEF,Con_Nat,long,congruent,n,,
4549,target,canvas.Screen,12_0_0_47_5,response,1097.6999999996333,147800.59999999963,147795.8,147810.9,148908.59999999963,148915.30000000075,2024-10-01T09:29:00.012Z,148931.8,response_natural,keypress(n),reef,REEF,Con_Nat,long,congruent,n,n,False
4549,Trial Sequence,flow.Sequence,12_0_0_47,completion,1857.3999999996158,147030.5,147025.094,147051.2,148908.59999999963,148915.5,2024-10-01T09:29:00.012Z,148931.8,,,reef,REEF,Con_Nat,long,congruent,n,,
4549,fixation,canvas.Screen,12_0_0_48_0,timeout,538.7000000000116,148915.59999999963,148910.856,148931.8,149454.6,149455.80000000075,2024-10-01T09:29:00.553Z,149470.5,,,sheep,BULL,Inc_Nat_Nat,long,incongruent,m,,
4549,mask1,canvas.Screen,12_0_0_48_1,timeout,46.79999999998836,149456.09999999963,149454.6,149470.5,149504.5,149505.80000000075,2024-10-01T09:29:00.603Z,149517.3,,,sheep,BULL,Inc_Nat_Nat,long,incongruent,m,,
4549,prime,canvas.Screen,12_0_0_48_2,timeout,46.5,149506.09999999963,149504.5,149517.3,149548.2,149551.30000000075,2024-10-01T09:29:00.648Z,149563.8,,,sheep,BULL,Inc_Nat_Nat,long,incongruent,m,,
4549,mask2,canvas.Screen,12_0_0_48_3,timeout,42.80000000001746,149551.5,149548.2,149563.8,149590.6,149595.09999999963,2024-10-01T09:29:00.692Z,149606.6,,,sheep,BULL,Inc_Nat_Nat,long,incongruent,m,,
4549,DELAY,canvas.Screen,12_0_0_48_4,timeout,85.29999999998836,149595.40000000037,149590.6,149606.6,149676.8,149681.5,2024-10-01T09:29:00.778Z,149691.9,,,sheep,BULL,Inc_Nat_Nat,long,incongruent,m,,
4549,target,canvas.Screen,12_0_0_48_5,response,683.1999999996333,149681.80000000075,149676.8,149691.9,150375.09999999963,150383.40000000037,2024-10-01T09:29:01.480Z,150402.8,response_natural,keypress(n),sheep,BULL,Inc_Nat_Nat,long,incongruent,m,m,False
4549,Trial Sequence,flow.Sequence,12_0_0_48,completion,1443.299999999639,148915.59999999963,148910.856,148931.8,150375.09999999963,150383.59999999963,2024-10-01T09:29:01.480Z,150402.8,,,sheep,BULL,Inc_Nat_Nat,long,incongruent,m,,
4549,fixation,canvas.Screen,12_0_0_49_0,timeout,542.2000000000116,150383.80000000075,150375.206,150402.8,150928.4,150930.19999999925,2024-10-01T09:29:02.027Z,150945.0,,,earth,EARTH,Con_Nat,long,congruent,n,,
4549,mask1,canvas.Screen,12_0_0_49_1,timeout,45.39999999999418,150930.30000000075,150928.4,150945.0,150978.7,150979.90000000037,2024-10-01T09:29:02.076Z,150990.4,,,earth,EARTH,Con_Nat,long,congruent,n,,
4549,prime,canvas.Screen,12_0_0_49_2,timeout,46.80000000001746,150980.19999999925,150978.7,150990.4,151021.6,151025.30000000075,2024-10-01T09:29:02.122Z,151037.2,,,earth,EARTH,Con_Nat,long,congruent,n,,
4549,mask2,canvas.Screen,12_0_0_49_3,timeout,42.59999999997672,151025.69999999925,151021.6,151037.2,151065.3,151067.59999999963,2024-10-01T09:29:02.164Z,151079.8,,,earth,EARTH,Con_Nat,long,congruent,n,,
4549,DELAY,canvas.Screen,12_0_0_49_4,timeout,81.40000000002328,151067.80000000075,151065.3,151079.8,151146.8,151151.59999999963,2024-10-01T09:29:02.248Z,151161.2,,,earth,EARTH,Con_Nat,long,congruent,n,,
4549,target,canvas.Screen,12_0_0_49_5,response,537.4999999992433,151151.69999999925,151146.8,151161.2,151698.69999999925,151706.5,2024-10-01T09:29:02.803Z,151723.4,response_natural,keypress(n),earth,EARTH,Con_Nat,long,congruent,n,n,False
4549,Trial Sequence,flow.Sequence,12_0_0_49,completion,1295.8999999992666,150383.80000000075,150375.206,150402.8,151698.69999999925,151706.80000000075,2024-10-01T09:29:02.803Z,151723.4,,,earth,EARTH,Con_Nat,long,congruent,n,,
4549,fixation,canvas.Screen,12_0_0_50_0,timeout,541.6000000000058,151707.09999999963,151694.512,151723.4,152249.3,152251.09999999963,2024-10-01T09:29:03.348Z,152265.0,,,canon,CANON,Con_Synth,long,congruent,m,,
4549,mask1,canvas.Screen,12_0_0_50_1,timeout,51.0,152251.30000000075,152249.3,152265.0,152298.8,152299.69999999925,2024-10-01T09:29:03.396Z,152316.0,,,canon,CANON,Con_Synth,long,congruent,m,,
4549,prime,canvas.Screen,12_0_0_50_2,timeout,49.89999999999418,152299.90000000037,152298.8,152316.0,152349.7,152350.80000000075,2024-10-01T09:29:03.447Z,152365.9,,,canon,CANON,Con_Synth,long,congruent,m,,
4549,mask2,canvas.Screen,12_0_0_50_3,timeout,43.0,152351.09999999963,152349.7,152365.9,152399.2,152400.40000000037,2024-10-01T09:29:03.497Z,152408.9,,,canon,CANON,Con_Synth,long,congruent,m,,
4549,DELAY,canvas.Screen,12_0_0_50_4,timeout,71.20000000001164,152400.69999999925,152399.2,152408.9,152473.2,152474.30000000075,2024-10-01T09:29:03.571Z,152480.1,,,canon,CANON,Con_Synth,long,congruent,m,,
4549,target,canvas.Screen,12_0_0_50_5,response,727.5999999992491,152474.59999999963,152473.2,152480.1,153207.69999999925,153215.59999999963,2024-10-01T09:29:04.312Z,153227.3,response_manmade,keypress(m),canon,CANON,Con_Synth,long,congruent,m,m,False
4549,Trial Sequence,flow.Sequence,12_0_0_50,completion,1484.2999999992608,151707.0,151694.512,151723.4,153207.69999999925,153216.0,2024-10-01T09:29:04.312Z,153227.3,,,canon,CANON,Con_Synth,long,congruent,m,,
4549,fixation,canvas.Screen,12_0_0_51_0,timeout,541.8000000000175,153216.19999999925,153213.404,153227.3,153752.7,153753.69999999925,2024-10-01T09:29:04.850Z,153769.1,,,sink,LAMB,Inc_Synth_Nat,long,incongruent,n,,
4549,mask1,canvas.Screen,12_0_0_51_1,timeout,54.79999999998836,153753.90000000037,153752.7,153769.1,153801.7,153802.5,2024-10-01T09:29:04.899Z,153823.9,,,sink,LAMB,Inc_Synth_Nat,long,incongruent,n,,
4549,prime,canvas.Screen,12_0_0_51_2,timeout,50.20000000001164,153802.80000000075,153801.7,153823.9,153861.6,153862.69999999925,2024-10-01T09:29:04.959Z,153874.1,,,sink,LAMB,Inc_Synth_Nat,long,incongruent,n,,
4549,mask2,canvas.Screen,12_0_0_51_3,timeout,41.79999999998836,153863.09999999963,153861.6,153874.1,153905.7,153908.19999999925,2024-10-01T09:29:05.005Z,153915.9,,,sink,LAMB,Inc_Synth_Nat,long,incongruent,n,,
4549,DELAY,canvas.Screen,12_0_0_51_4,timeout,88.20000000001164,153908.40000000037,153905.7,153915.9,153989.4,153991.40000000037,2024-10-01T09:29:05.088Z,154004.1,,,sink,LAMB,Inc_Synth_Nat,long,incongruent,n,,
4549,target,canvas.Screen,12_0_0_51_5,response,715.7000000007392,153991.5,153989.4,154004.1,154719.80000000075,154727.30000000075,2024-10-01T09:29:05.824Z,154764.0,response_natural,keypress(n),sink,LAMB,Inc_Synth_Nat,long,incongruent,n,n,False
4549,Trial Sequence,flow.Sequence,12_0_0_51,completion,1492.5000000007567,153216.19999999925,153213.404,153227.3,154719.80000000075,154727.40000000037,2024-10-01T09:29:05.824Z,154764.0,,,sink,LAMB,Inc_Synth_Nat,long,incongruent,n,,
4549,fixation,canvas.Screen,12_0_0_52_0,timeout,543.7000000000116,154727.59999999963,154737.404,154764.0,155291.0,155292.19999999925,2024-10-01T09:29:06.389Z,155307.7,,,cloud,MOTEL,Inc_Nat_Synth,long,incongruent,m,,
4549,mask1,canvas.Screen,12_0_0_52_1,timeout,44.89999999999418,155292.5,155291.0,155307.7,155340.9,155341.69999999925,2024-10-01T09:29:06.438Z,155352.6,,,cloud,MOTEL,Inc_Nat_Synth,long,incongruent,m,,
4549,prime,canvas.Screen,12_0_0_52_2,timeout,42.89999999999418,155341.90000000037,155340.9,155352.6,155384.6,155387.09999999963,2024-10-01T09:29:06.483Z,155395.5,,,cloud,MOTEL,Inc_Nat_Synth,long,incongruent,m,,
4549,mask2,canvas.Screen,12_0_0_52_3,timeout,46.10000000000582,155387.40000000037,155384.6,155395.5,155425.6,155430.5,2024-10-01T09:29:06.527Z,155441.6,,,cloud,MOTEL,Inc_Nat_Synth,long,incongruent,m,,
4549,DELAY,canvas.Screen,12_0_0_52_4,timeout,83.0,155430.69999999925,155425.6,155441.6,155509.3,155514.0,2024-10-01T09:29:06.610Z,155524.6,,,cloud,MOTEL,Inc_Nat_Synth,long,incongruent,m,,
4549,target,canvas.Screen,12_0_0_52_5,response,708.2000000007392,155514.09999999963,155509.3,155524.6,156232.80000000075,156240.09999999963,2024-10-01T09:29:07.336Z,156252.2,response_manmade,keypress(m),cloud,MOTEL,Inc_Nat_Synth,long,incongruent,m,m,False
4549,Trial Sequence,flow.Sequence,12_0_0_52,completion,1468.800000000745,154727.5,154737.404,154764.0,156232.80000000075,156240.40000000037,2024-10-01T09:29:07.337Z,156252.2,,,cloud,MOTEL,Inc_Nat_Synth,long,incongruent,m,,
4549,fixation,canvas.Screen,12_0_0_53_0,timeout,541.0,156240.69999999925,156241.238,156252.2,156776.8,156777.90000000037,2024-10-01T09:29:07.874Z,156793.2,,,swamp,DRILL,Inc_Nat_Synth,long,incongruent,m,,
4549,mask1,canvas.Screen,12_0_0_53_1,timeout,50.19999999998254,156778.09999999963,156776.8,156793.2,156827.7,156828.80000000075,2024-10-01T09:29:07.925Z,156843.4,,,swamp,DRILL,Inc_Nat_Synth,long,incongruent,m,,
4549,prime,canvas.Screen,12_0_0_53_2,timeout,44.20000000001164,156829.09999999963,156827.7,156843.4,156873.4,156878.80000000075,2024-10-01T09:29:07.975Z,156887.6,,,swamp,DRILL,Inc_Nat_Synth,long,incongruent,m,,
4549,mask2,canvas.Screen,12_0_0_53_3,timeout,40.89999999999418,156879.09999999963,156873.4,156887.6,156915.1,156917.5,2024-10-01T09:29:08.014Z,156928.5,,,swamp,DRILL,Inc_Nat_Synth,long,incongruent,m,,
4549,DELAY,canvas.Screen,12_0_0_53_4,timeout,81.39999999999418,156917.69999999925,156915.1,156928.5,156995.8,157002.09999999963,2024-10-01T09:29:08.098Z,157009.9,,,swamp,DRILL,Inc_Nat_Synth,long,incongruent,m,,
4549,target,canvas.Screen,12_0_0_53_5,response,1174.5000000003783,157002.5,156995.8,157009.9,158184.40000000037,158189.5,2024-10-01T09:29:09.286Z,158204.6,response_manmade,keypress(m),swamp,DRILL,Inc_Nat_Synth,long,incongruent,m,m,False
4549,Trial Sequence,flow.Sequence,12_0_0_53,completion,1932.200000000361,156240.59999999963,156241.238,156252.2,158184.40000000037,158189.90000000037,2024-10-01T09:29:09.286Z,158204.6,,,swamp,DRILL,Inc_Nat_Synth,long,incongruent,m,,
4549,fixation,canvas.Screen,12_0_0_54_0,timeout,536.6999999999825,158189.90000000037,158193.186,158204.6,158724.5,158725.69999999925,2024-10-01T09:29:09.822Z,158741.3,,,wheat,BRICK,Inc_Nat_Synth,long,incongruent,m,,
4549,mask1,canvas.Screen,12_0_0_54_1,timeout,50.60000000000582,158725.90000000037,158724.5,158741.3,158774.2,158775.69999999925,2024-10-01T09:29:09.872Z,158791.9,,,wheat,BRICK,Inc_Nat_Synth,long,incongruent,m,,
4549,prime,canvas.Screen,12_0_0_54_2,timeout,41.80000000001746,158776.0,158774.2,158791.9,158818.5,158821.09999999963,2024-10-01T09:29:09.917Z,158833.7,,,wheat,BRICK,Inc_Nat_Synth,long,incongruent,m,,
4549,mask2,canvas.Screen,12_0_0_54_3,timeout,43.39999999999418,158821.30000000075,158818.5,158833.7,158860.7,158863.69999999925,2024-10-01T09:29:09.960Z,158877.1,,,wheat,BRICK,Inc_Nat_Synth,long,incongruent,m,,
4549,DELAY,canvas.Screen,12_0_0_54_4,timeout,84.19999999998254,158863.90000000037,158860.7,158877.1,158945.2,158946.40000000037,2024-10-01T09:29:10.043Z,158961.3,,,wheat,BRICK,Inc_Nat_Synth,long,incongruent,m,,
4549,target,canvas.Screen,12_0_0_54_5,response,828.3999999992666,158946.5,158945.2,158961.3,159789.69999999925,159796.30000000075,2024-10-01T09:29:10.892Z,159820.1,response_natural,keypress(n),wheat,BRICK,Inc_Nat_Synth,long,incongruent,m,m,False
4549,Trial Sequence,flow.Sequence,12_0_0_54,completion,1585.0999999992491,158189.90000000037,158193.186,158204.6,159789.69999999925,159796.59999999963,2024-10-01T09:29:10.893Z,159820.1,,,wheat,BRICK,Inc_Nat_Synth,long,incongruent,m,,
4549,fixation,canvas.Screen,12_0_0_55_0,timeout,543.8999999999942,159796.80000000075,159794.6,159820.1,160347.0,160348.80000000075,2024-10-01T09:29:11.445Z,160364.0,,,lemon,DUCK,Inc_Nat_Nat,long,incongruent,m,,
4549,mask1,canvas.Screen,12_0_0_55_1,timeout,54.79999999998836,160349.0,160347.0,160364.0,160396.3,160398.0,2024-10-01T09:29:11.494Z,160418.8,,,lemon,DUCK,Inc_Nat_Nat,long,incongruent,m,,
4549,prime,canvas.Screen,12_0_0_55_2,timeout,49.0,160398.09999999963,160396.3,160418.8,160455.8,160456.90000000037,2024-10-01T09:29:11.553Z,160467.8,,,lemon,DUCK,Inc_Nat_Nat,long,incongruent,m,,
4549,mask2,canvas.Screen,12_0_0_55_3,timeout,47.5,160457.09999999963,160455.8,160467.8,160499.8,160502.40000000037,2024-10-01T09:29:11.598Z,160515.3,,,lemon,DUCK,Inc_Nat_Nat,long,incongruent,m,,
4549,DELAY,canvas.Screen,12_0_0_55_4,timeout,82.5,160502.69999999925,160499.8,160515.3,160581.9,160586.19999999925,2024-10-01T09:29:11.682Z,160597.8,,,lemon,DUCK,Inc_Nat_Nat,long,incongruent,m,,
4549,target,canvas.Screen,12_0_0_55_5,response,757.8999999992666,160586.40000000037,160581.9,160597.8,161355.69999999925,161363.0,2024-10-01T09:29:12.459Z,161373.7,response_natural,keypress(n),lemon,DUCK,Inc_Nat_Nat,long,incongruent,m,m,False
4549,Trial Sequence,flow.Sequence,12_0_0_55,completion,1535.5999999992491,159796.69999999925,159794.6,159820.1,161355.69999999925,161363.30000000075,2024-10-01T09:29:12.459Z,161373.7,,,lemon,DUCK,Inc_Nat_Nat,long,incongruent,m,,
4549,fixation,canvas.Screen,12_0_0_56_0,timeout,543.5999999999767,161363.5,161364.436,161373.7,161901.1,161903.59999999963,2024-10-01T09:29:12.999Z,161917.3,,,cake,TRASH,Inc_Synth_Synth,long,incongruent,m,,
4549,mask1,canvas.Screen,12_0_0_56_1,timeout,51.0,161903.69999999925,161901.1,161917.3,161950.6,161952.80000000075,2024-10-01T09:29:13.049Z,161968.3,,,cake,TRASH,Inc_Synth_Synth,long,incongruent,m,,
4549,prime,canvas.Screen,12_0_0_56_2,timeout,43.20000000001164,161953.09999999963,161950.6,161968.3,161994.8,161999.09999999963,2024-10-01T09:29:13.095Z,162011.5,,,cake,TRASH,Inc_Synth_Synth,long,incongruent,m,,
4549,mask2,canvas.Screen,12_0_0_56_3,timeout,42.29999999998836,161999.40000000037,161994.8,162011.5,162038.3,162042.09999999963,2024-10-01T09:29:13.138Z,162053.8,,,cake,TRASH,Inc_Synth_Synth,long,incongruent,m,,
4549,DELAY,canvas.Screen,12_0_0_56_4,timeout,83.60000000000582,162042.40000000037,162038.3,162053.8,162121.2,162126.40000000037,2024-10-01T09:29:13.222Z,162137.4,,,cake,TRASH,Inc_Synth_Synth,long,incongruent,m,,
4549,target,canvas.Screen,12_0_0_56_5,response,691.6000000000058,162126.40000000037,162121.2,162137.4,162829.0,162836.69999999925,2024-10-01T09:29:13.933Z,162846.7,response_manmade,keypress(m),cake,TRASH,Inc_Synth_Synth,long,incongruent,m,m,False
4549,Trial Sequence,flow.Sequence,12_0_0_56,completion,1455.2999999999884,161363.40000000037,161364.436,161373.7,162829.0,162837.0,2024-10-01T09:29:13.933Z,162846.7,,,cake,TRASH,Inc_Synth_Synth,long,incongruent,m,,
4549,fixation,canvas.Screen,12_0_0_57_0,timeout,544.6999999999825,162837.09999999963,162837.372,162846.7,163374.8,163377.40000000037,2024-10-01T09:29:14.473Z,163391.4,,,crab,CRAB,Con_Nat,long,congruent,n,,
4549,mask1,canvas.Screen,12_0_0_57_1,timeout,49.39999999999418,163377.69999999925,163374.8,163391.4,163424.1,163426.40000000037,2024-10-01T09:29:14.522Z,163440.8,,,crab,CRAB,Con_Nat,long,congruent,n,,
4549,prime,canvas.Screen,12_0_0_57_2,timeout,39.80000000001746,163426.5,163424.1,163440.8,163470.7,163476.40000000037,2024-10-01T09:29:14.572Z,163480.6,,,crab,CRAB,Con_Nat,long,congruent,n,,
4549,mask2,canvas.Screen,12_0_0_57_3,timeout,45.19999999998254,163476.59999999963,163470.7,163480.6,163510.2,163515.09999999963,2024-10-01T09:29:14.611Z,163525.8,,,crab,CRAB,Con_Nat,long,congruent,n,,
4549,DELAY,canvas.Screen,12_0_0_57_4,timeout,70.0,163515.40000000037,163510.2,163525.8,163583.8,163585.90000000037,2024-10-01T09:29:14.682Z,163595.8,,,crab,CRAB,Con_Nat,long,congruent,n,,
4549,target,canvas.Screen,12_0_0_57_5,response,737.7999999996391,163586.19999999925,163583.8,163595.8,164333.59999999963,164341.5,2024-10-01T09:29:15.437Z,164353.4,response_natural,keypress(n),crab,CRAB,Con_Nat,long,congruent,n,n,False
4549,Trial Sequence,flow.Sequence,12_0_0_57,completion,1486.8999999996158,162837.0,162837.372,162846.7,164333.59999999963,164342.09999999963,2024-10-01T09:29:15.438Z,164353.4,,,crab,CRAB,Con_Nat,long,congruent,n,,
4549,fixation,canvas.Screen,12_0_0_58_0,timeout,542.5,164342.19999999925,164341.5,164353.4,164878.8,164881.19999999925,2024-10-01T09:29:15.977Z,164895.9,,,broom,BROOM,Con_Synth,long,congruent,m,,
4549,mask1,canvas.Screen,12_0_0_58_1,timeout,45.70000000001164,164881.40000000037,164878.8,164895.9,164924.4,164931.09999999963,2024-10-01T09:29:16.027Z,164941.6,,,broom,BROOM,Con_Synth,long,congruent,m,,
4549,prime,canvas.Screen,12_0_0_58_2,timeout,46.10000000000582,164931.40000000037,164924.4,164941.6,164971.8,164974.5,2024-10-01T09:29:16.070Z,164987.7,,,broom,BROOM,Con_Synth,long,congruent,m,,
4549,mask2,canvas.Screen,12_0_0_58_3,timeout,43.0,164974.80000000075,164971.8,164987.7,165016.2,165023.40000000037,2024-10-01T09:29:16.119Z,165030.7,,,broom,BROOM,Con_Synth,long,congruent,m,,
4549,DELAY,canvas.Screen,12_0_0_58_4,timeout,70.39999999999418,165023.80000000075,165016.2,165030.7,165089.2,165090.90000000037,2024-10-01T09:29:16.187Z,165101.1,,,broom,BROOM,Con_Synth,long,congruent,m,,
4549,target,canvas.Screen,12_0_0_58_5,response,1151.3999999999942,165091.30000000075,165089.2,165101.1,166252.5,166258.90000000037,2024-10-01T09:29:17.355Z,166282.9,response_manmade,keypress(m),broom,BROOM,Con_Synth,long,congruent,m,m,False
4549,Trial Sequence,flow.Sequence,12_0_0_58,completion,1899.1000000000058,164342.09999999963,164341.5,164353.4,166252.5,166259.19999999925,2024-10-01T09:29:17.355Z,166282.9,,,broom,BROOM,Con_Synth,long,congruent,m,,
4549,fixation,canvas.Screen,12_0_0_59_0,timeout,537.5,166259.5,166251.054,166282.9,166803.8,166806.40000000037,2024-10-01T09:29:17.902Z,166820.4,,,flood,SKIRT,Inc_Nat_Synth,long,incongruent,m,,
4549,mask1,canvas.Screen,12_0_0_59_1,timeout,45.89999999999418,166806.69999999925,166803.8,166820.4,166853.7,166854.5,2024-10-01T09:29:17.950Z,166866.3,,,flood,SKIRT,Inc_Nat_Synth,long,incongruent,m,,
4549,prime,canvas.Screen,12_0_0_59_2,timeout,45.70000000001164,166854.5,166853.7,166866.3,166896.0,166897.90000000037,2024-10-01T09:29:17.994Z,166912.0,,,flood,SKIRT,Inc_Nat_Synth,long,incongruent,m,,
4549,mask2,canvas.Screen,12_0_0_59_3,timeout,40.0,166898.09999999963,166896.0,166912.0,166940.4,166947.19999999925,2024-10-01T09:29:18.043Z,166952.0,,,flood,SKIRT,Inc_Nat_Synth,long,incongruent,m,,
4549,DELAY,canvas.Screen,12_0_0_59_4,timeout,71.39999999999418,166947.40000000037,166940.4,166952.0,167011.8,167012.90000000037,2024-10-01T09:29:18.109Z,167023.4,,,flood,SKIRT,Inc_Nat_Synth,long,incongruent,m,,
4549,target,canvas.Screen,12_0_0_59_5,response,1078.2999999992608,167013.19999999925,167011.8,167023.4,168101.69999999925,168122.40000000037,2024-10-01T09:29:19.218Z,168134.2,response_manmade,keypress(m),flood,SKIRT,Inc_Nat_Synth,long,incongruent,m,m,False
4549,Trial Sequence,flow.Sequence,12_0_0_59,completion,1818.7999999992608,166259.40000000037,166251.054,166282.9,168101.69999999925,168122.59999999963,2024-10-01T09:29:19.218Z,168134.2,,,flood,SKIRT,Inc_Nat_Synth,long,incongruent,m,,
4549,Long Loop,flow.Loop,12_0_0,completion,100847.39999999925,67231.30000000075,67229.426,67254.3,168101.69999999925,168122.69999999925,2024-10-01T09:29:19.218Z,168134.2,,,,,,,,,,
4549,Break,canvas.Screen,12_0_1,response,4501.499999999243,168122.80000000075,168123.356,168134.2,172635.69999999925,172644.0,2024-10-01T09:29:23.739Z,172654.6,,keypress(Space),,,,,,,,
4549,Long Sequence,flow.Sequence,12_0,completion,105381.39999999925,67231.30000000075,67229.426,67254.3,172635.69999999925,172644.19999999925,2024-10-01T09:29:23.740Z,172654.6,,,,,,,,,,
4549,fixation,canvas.Screen,12_1_0_0_0,timeout,538.3999999999942,172644.40000000037,172635.1,172654.6,173177.2,173179.0,2024-10-01T09:29:24.274Z,173193.0,,,sash,CLOTH,Inc_Synth_Synth,short,incongruent,m,,
4549,mask1,canvas.Screen,12_1_0_0_1,timeout,54.89999999999418,173179.19999999925,173177.2,173193.0,173227.4,173228.40000000037,2024-10-01T09:29:24.324Z,173247.9,,,sash,CLOTH,Inc_Synth_Synth,short,incongruent,m,,
4549,prime,canvas.Screen,12_1_0_0_2,timeout,54.89999999999418,173228.59999999963,173227.4,173247.9,173285.8,173287.0,2024-10-01T09:29:24.382Z,173302.8,,,sash,CLOTH,Inc_Synth_Synth,short,incongruent,m,,
4549,mask2,canvas.Screen,12_1_0_0_3,timeout,42.80000000001746,173287.30000000075,173285.8,173302.8,173330.7,173334.40000000037,2024-10-01T09:29:24.430Z,173345.6,,,sash,CLOTH,Inc_Synth_Synth,short,incongruent,m,,
4549,target,canvas.Screen,12_1_0_0_4,response,874.7000000007392,173334.59999999963,173330.7,173345.6,174220.30000000075,174226.30000000075,2024-10-01T09:29:25.322Z,174247.5,response_manmade,keypress(m),sash,CLOTH,Inc_Synth_Synth,short,incongruent,m,m,False
4549,Trial Sequence,flow.Sequence,12_1_0_0,completion,1565.7000000007392,172644.40000000037,172635.1,172654.6,174220.30000000075,174226.5,2024-10-01T09:29:25.322Z,174247.5,,,sash,CLOTH,Inc_Synth_Synth,short,incongruent,m,,
4549,fixation,canvas.Screen,12_1_0_1_0,timeout,542.3999999999942,174226.59999999963,174228.898,174247.5,174772.6,174773.80000000075,2024-10-01T09:29:25.869Z,174789.9,,,puppy,PUPPY,Con_Nat,short,congruent,n,,
4549,mask1,canvas.Screen,12_1_0_1_1,timeout,50.30000000001746,174774.0,174772.6,174789.9,174822.5,174824.0,2024-10-01T09:29:25.919Z,174840.2,,,puppy,PUPPY,Con_Nat,short,congruent,n,,
4549,prime,canvas.Screen,12_1_0_1_2,timeout,42.79999999998836,174824.19999999925,174822.5,174840.2,174866.4,174869.40000000037,2024-10-01T09:29:25.965Z,174883.0,,,puppy,PUPPY,Con_Nat,short,congruent,n,,
4549,mask2,canvas.Screen,12_1_0_1_3,timeout,40.10000000000582,174869.5,174866.4,174883.0,174908.5,174912.09999999963,2024-10-01T09:29:26.007Z,174923.1,,,puppy,PUPPY,Con_Nat,short,congruent,n,,
4549,target,canvas.Screen,12_1_0_1_4,response,608.3000000003667,174912.30000000075,174908.5,174923.1,175531.40000000037,175539.5,2024-10-01T09:29:26.635Z,175561.6,response_natural,keypress(n),puppy,PUPPY,Con_Nat,short,congruent,n,n,False
4549,Trial Sequence,flow.Sequence,12_1_0_1,completion,1283.9000000003725,174226.59999999963,174228.898,174247.5,175531.40000000037,175539.80000000075,2024-10-01T09:29:26.635Z,175561.6,,,puppy,PUPPY,Con_Nat,short,congruent,n,,
4549,fixation,canvas.Screen,12_1_0_2_0,timeout,541.7999999999884,175540.0,175539.742,175561.6,176087.7,176088.90000000037,2024-10-01T09:29:27.184Z,176103.4,,,lime,GULLY,Inc_Nat_Nat,short,incongruent,n,,
4549,mask1,canvas.Screen,12_1_0_2_1,timeout,50.10000000000582,176089.09999999963,176087.7,176103.4,176137.5,176138.59999999963,2024-10-01T09:29:27.234Z,176153.5,,,lime,GULLY,Inc_Nat_Nat,short,incongruent,n,,
4549,prime,canvas.Screen,12_1_0_2_2,timeout,42.5,176138.90000000037,176137.5,176153.5,176180.1,176184.59999999963,2024-10-01T09:29:27.280Z,176196.0,,,lime,GULLY,Inc_Nat_Nat,short,incongruent,n,,
4549,mask2,canvas.Screen,12_1_0_2_3,timeout,42.70000000001164,176184.69999999925,176180.1,176196.0,176223.3,176227.40000000037,2024-10-01T09:29:27.323Z,176238.7,,,lime,GULLY,Inc_Nat_Nat,short,incongruent,n,,
4549,target,canvas.Screen,12_1_0_2_4,response,559.9999999992433,176227.5,176223.3,176238.7,176798.69999999925,176805.59999999963,2024-10-01T09:29:27.901Z,176824.3,response_manmade,keypress(m),lime,GULLY,Inc_Nat_Nat,short,incongruent,n,n,False
4549,Trial Sequence,flow.Sequence,12_1_0_2,completion,1237.0999999992491,175540.0,175539.742,175561.6,176798.69999999925,176805.90000000037,2024-10-01T09:29:27.901Z,176824.3,,,lime,GULLY,Inc_Nat_Nat,short,incongruent,n,,
4549,fixation,canvas.Screen,12_1_0_3_0,timeout,541.6000000000058,176806.09999999963,176805.344,176824.3,177350.0,177351.59999999963,2024-10-01T09:29:28.447Z,177365.9,,,mail,MAIL,Con_Synth,short,congruent,m,,
4549,mask1,canvas.Screen,12_1_0_3_1,timeout,55.60000000000582,177351.90000000037,177350.0,177365.9,177399.0,177400.0,2024-10-01T09:29:28.495Z,177421.5,,,mail,MAIL,Con_Synth,short,congruent,m,,
4549,prime,canvas.Screen,12_1_0_3_2,timeout,53.39999999999418,177400.09999999963,177399.0,177421.5,177458.6,177460.0,2024-10-01T09:29:28.555Z,177474.9,,,mail,MAIL,Con_Synth,short,congruent,m,,
4549,mask2,canvas.Screen,12_1_0_3_3,timeout,45.20000000001164,177460.30000000075,177458.6,177474.9,177505.4,177506.69999999925,2024-10-01T09:29:28.602Z,177520.1,,,mail,MAIL,Con_Synth,short,congruent,m,,
4549,target,canvas.Screen,12_1_0_3_4,response,714.7000000007392,177507.0,177505.4,177520.1,178234.80000000075,178242.40000000037,2024-10-01T09:29:29.337Z,178253.2,response_manmade,keypress(m),mail,MAIL,Con_Synth,short,congruent,m,m,False
4549,Trial Sequence,flow.Sequence,12_1_0_3,completion,1410.5000000007567,176806.09999999963,176805.344,176824.3,178234.80000000075,178242.59999999963,2024-10-01T09:29:29.338Z,178253.2,,,mail,MAIL,Con_Synth,short,congruent,m,,
